Sec	Nsec	OrientX	OrientY	OrientZ	OrientW	AngVelX	AngVelY	AngVelZ	AccX	AccY	AccZ
 1620114965	  685454996	0.01035	0.00024	0.63484	0.77257	0.00000	0.00000	0.00000	0.14365	0.20830	9.94192
 1620114965	  867508899	0.01355	-0.00043	0.63482	0.77253	0.00000	0.00000	0.00000	0.13707	0.19992	9.91738
 1620114965	  873508899	0.00782	0.00997	0.63472	0.77263	0.00000	0.00000	0.00000	0.14365	0.20949	9.95689
 1620114965	  983508899	0.01196	0.00128	0.63469	0.77267	0.00000	0.00000	0.00000	0.13108	0.19992	9.94252
 1620114966	   75508899	0.01112	0.00143	0.63452	0.77282	0.00000	0.00000	-0.00532	0.12689	0.19752	9.97365
 1620114966	  187508899	0.01429	0.00219	0.63432	0.77293	0.00000	0.00000	0.00000	0.14425	0.20171	9.92756
 1620114966	  280508899	0.01165	0.00158	0.63415	0.77312	0.00000	0.00000	-0.00532	0.13647	0.19573	9.94851
 1620114966	  401508899	0.01502	0.00221	0.63385	0.77330	0.00000	-0.00426	-0.00532	0.13108	0.19872	9.94372
 1620114966	  476508899	0.01376	0.00139	0.63369	0.77345	-0.00426	0.00000	-0.00639	0.12989	0.21967	9.91858
 1620114966	  577508899	0.01198	0.00068	0.63349	0.77365	0.00000	0.00000	-0.00639	0.13886	0.19453	9.95270
 1620114966	  642508899	0.01052	0.00123	0.63334	0.77379	0.00000	-0.00426	-0.00532	0.14186	0.18794	9.96706
 1620114966	  844508899	0.00767	0.00145	0.63309	0.77403	0.00000	0.00000	-0.00532	0.10714	0.19992	9.93893
 1620114966	  898508899	0.01246	0.00156	0.63275	0.77425	0.00000	0.00000	-0.00639	0.12929	0.20770	9.93713
 1620114966	  974508899	0.01182	0.00096	0.63259	0.77439	0.00000	0.00000	-0.00532	0.13527	0.19632	9.94491
 1620114967	   74508899	0.01057	0.00323	0.63233	0.77461	0.00000	0.00000	-0.00639	0.13288	0.19872	9.94192
 1620114967	  165508899	0.01195	0.00060	0.63214	0.77475	0.00000	0.00000	-0.00639	0.14006	0.19812	9.92816
 1620114967	  287508899	0.01274	0.00279	0.63181	0.77500	0.00000	0.00000	-0.00639	0.13647	0.19213	9.96826
 1620114967	  369508899	0.01207	0.00078	0.63166	0.77514	0.00000	0.00000	-0.00532	0.11612	0.19393	9.95808
 1620114967	  464508899	0.01188	0.00098	0.63146	0.77531	0.00000	0.00000	-0.00426	0.13408	0.19573	9.93235
 1620114967	  580508899	0.01290	0.00094	0.63126	0.77546	0.00000	0.00000	0.00000	0.12749	0.20530	9.96706
 1620114967	  675508899	0.01228	0.00185	0.63109	0.77561	0.00000	0.00000	-0.00532	0.13288	0.19752	9.91978
 1620114967	  885508899	0.01176	0.00129	0.63094	0.77574	0.00000	0.00000	-0.00426	0.11672	0.19992	9.95689
 1620114967	  896508899	0.01253	0.01393	0.63053	0.77594	0.00000	0.00000	-0.00426	0.12989	0.21428	9.94312
 1620114968	  648934944	0.01220	0.00129	0.63065	0.77596	0.00000	0.00000	0.00000	0.13827	0.19453	9.94491
 1620114968	  712934944	0.01154	0.00133	0.63066	0.77597	0.00000	0.00000	0.00000	0.12689	0.19812	9.96826
 1620114968	  729934944	0.01168	0.00157	0.63065	0.77597	0.00000	0.00426	0.00000	0.12809	0.21009	9.94970
 1620114968	  873934944	0.01143	0.00018	0.63067	0.77596	0.00000	0.00000	0.00000	0.10894	0.20231	9.93713
 1620114968	  991934944	0.01268	0.00165	0.63065	0.77595	0.00000	0.00000	0.00000	0.12510	0.20830	9.97305
 1620114969	   11934944	0.01121	0.00177	0.63066	0.77597	0.00000	0.00000	0.00000	0.10894	0.19154	9.95449
 1620114969	  173934944	0.01291	0.00046	0.63066	0.77594	0.00000	0.00000	0.00000	0.13707	0.21428	9.96048
 1620114969	  188934944	0.01268	0.00195	0.63065	0.77596	0.00000	0.00000	0.00000	0.12749	0.22206	9.97724
 1620114969	  454934944	0.01149	0.00109	0.63067	0.77596	0.00000	-0.00426	0.00000	0.12689	0.19094	9.92816
 1620114969	  489934944	0.01430	0.00304	0.63062	0.77595	0.00000	-0.00426	0.00000	0.12809	0.20530	9.94731
 1620114969	  490934944	0.01375	0.00261	0.63063	0.77595	0.00000	-0.00426	0.00000	0.13048	0.20770	9.97544
 1620114969	  759934944	0.01138	0.00051	0.63105	0.77566	0.00000	-0.00426	0.00532	0.13467	0.17597	9.95150
 1620114969	  915934944	0.00574	-0.00503	0.63139	0.77542	0.00000	0.00000	0.00532	0.13527	0.20949	9.95030
 1620114969	  925934944	0.00646	-0.00433	0.63140	0.77541	0.00000	0.00000	0.00639	0.13467	0.21907	9.93893
 1620114970	   90934944	0.01117	-0.00119	0.63169	0.77513	0.00000	0.00000	0.00532	0.14425	0.18136	9.95868
 1620114970	  105934944	0.01163	0.00023	0.63171	0.77511	0.00000	0.00000	0.00639	0.12151	0.20351	9.95748
 1620114970	  254934944	0.01211	0.00267	0.63203	0.77484	0.00000	0.00000	0.00532	0.11193	0.20291	9.96287
 1620114970	  267934944	0.01209	0.00163	0.63207	0.77481	0.00000	0.00000	0.00532	0.13767	0.20411	9.94252
 1620114970	  340934944	0.01180	0.00152	0.63223	0.77469	0.00000	0.00000	0.00639	0.12450	0.20051	9.91678
 1620114973	  260996028	0.01196	0.00204	0.64301	0.76575	0.00000	-0.00426	0.01383	0.12330	0.21069	9.94132
 1620114973	  468388116	0.01145	0.00188	0.64371	0.76517	0.00000	0.00000	0.00639	0.11612	0.19932	9.98442
 1620114973	  480388116	0.01204	0.00146	0.64377	0.76512	0.00000	0.00000	0.00851	0.14186	0.20231	9.97185
 1620114973	  646388116	0.01010	0.00190	0.64421	0.76478	0.00000	0.00000	0.00851	0.10056	0.18016	9.95329
 1620114973	  793388116	0.01185	0.00135	0.64466	0.76437	0.00000	0.00000	0.00745	0.11911	0.19992	9.96826
 1620114974	  343388116	0.03676	0.01573	0.64521	0.76296	-0.00532	0.00000	0.00000	0.11372	0.18495	9.97484
 1620114974	  363388116	0.03494	0.01473	0.64526	0.76301	-0.00639	0.00000	0.00000	0.12031	0.19573	9.95629
 1620114974	  431388116	0.02894	0.01139	0.64543	0.76318	0.00000	0.00000	0.00000	0.10654	0.21069	9.93893
 1620114974	  501388116	0.02276	0.00813	0.64553	0.76335	0.00000	0.00000	-0.00532	0.08619	0.20351	9.96108
 1620114974	  599388116	0.01409	0.00377	0.64544	0.76367	0.00000	0.00000	-0.00532	0.10475	0.21608	9.93833
 1620114974	  765388116	0.01034	0.00105	0.64500	0.76410	0.00000	0.00000	-0.00851	0.09816	0.18854	9.95449
 1620114974	  798388116	0.01108	0.00207	0.64489	0.76419	0.00000	0.00000	-0.00745	0.11073	0.19513	9.94851
 1620114975	  654388116	0.02297	0.05577	0.64180	0.76449	0.00000	0.00000	0.00000	0.10834	0.19872	9.96167
 1620114975	  773388116	0.02057	0.04416	0.64229	0.76490	0.00000	-0.00745	0.00000	0.11492	0.20530	9.97903
 1620114977	   52336025	0.01941	0.03806	0.64251	0.76508	0.00000	-0.00958	0.00000	0.10235	0.18615	9.94372
 1620114977	  194336025	-0.00443	-0.08849	0.64151	0.76197	0.00000	-0.00639	0.00000	0.12330	0.20051	9.98921
 1620114977	  201336025	-0.00175	-0.07497	0.64167	0.76330	0.00000	-0.00426	-0.00851	0.13048	0.18615	9.97484
 1620114977	  216336025	-0.00146	-0.07337	0.64164	0.76348	0.00000	0.00000	-0.01490	0.14006	0.19992	9.96467
 1620114977	  347336025	0.00097	-0.06082	0.64139	0.76480	0.00000	0.00000	-0.01383	0.11133	0.19393	9.93833
 1620114977	  456336025	0.00308	-0.04978	0.64104	0.76588	0.00000	-0.00426	-0.01596	0.15024	0.20171	9.97843
 1620114977	  549336025	0.00472	-0.04127	0.64071	0.76665	0.00000	-0.00426	-0.01490	0.13408	0.19812	9.93294
 1620114978	   52336025	0.00942	0.00308	0.63793	0.77002	0.00000	0.00000	-0.01490	0.10534	0.19154	9.94551
 1620114978	  386212038	0.01210	0.00145	0.63611	0.77150	0.00000	0.00000	-0.01277	0.13048	0.20351	9.93175
 1620114978	  461212038	0.01299	0.00095	0.63571	0.77182	0.00000	0.00000	-0.01383	0.15323	0.21308	9.97305
 1620114978	  564212038	0.01305	0.00348	0.63514	0.77227	0.00426	0.00000	-0.01277	0.12270	0.19393	9.92636
 1620114979	     212038	0.01450	0.00126	0.63336	0.77371	0.00000	-0.00532	-0.00958	0.14724	0.22206	9.96287
 1620114979	  198212038	0.00345	0.00358	0.63277	0.77432	0.00000	-0.00532	-0.00745	0.11612	0.21368	9.93594
 1620114979	  554212038	0.01213	0.00131	0.63235	0.77458	0.00000	0.00000	0.00000	0.14605	0.20231	9.94611
 1620114979	  658212038	0.01099	-0.00194	0.63239	0.77457	0.00000	0.00000	0.00000	0.11672	0.21727	9.95868
 1620114979	  960212038	0.01189	0.00180	0.63235	0.77458	0.00000	0.00000	0.00000	0.12450	0.20949	9.95569
 1620114979	  997212038	0.01213	-0.00068	0.63238	0.77456	0.00000	0.00000	0.00000	0.13467	0.21069	9.94073
 1620114980	   50212038	0.01234	0.00178	0.63235	0.77458	0.00000	0.00000	0.00000	0.12869	0.21548	9.92816
 1620114980	  387212038	0.01019	0.00014	0.63303	0.77406	0.00000	-0.00532	0.00745	0.12809	0.20710	9.94911
 1620114980	  471212038	0.01805	0.00081	0.63322	0.77375	0.00000	-0.00426	0.00851	0.14904	0.20411	9.95689
 1620114980	  564212038	0.01223	0.00125	0.63358	0.77358	0.00000	-0.00639	0.00851	0.13587	0.20470	9.97365
 1620114980	  902239965	0.01162	-0.00007	0.63489	0.77251	0.00000	0.00000	0.01171	0.11313	0.21009	9.95449
 1620114980	  975239965	0.01223	0.00092	0.63523	0.77222	0.00000	0.00000	0.01171	0.14066	0.19932	9.93953
 1620114981	   75239965	0.01174	0.00119	0.63571	0.77183	0.00000	0.00000	0.01277	0.12689	0.18854	9.93654
 1620114981	  389239965	0.01235	0.00090	0.63739	0.77044	0.00000	0.00000	0.01490	0.13647	0.20051	9.94671
 1620114981	  472239965	0.01180	0.00173	0.63788	0.77004	0.00000	0.00000	0.01596	0.13408	0.20291	9.95389
 1620114981	  561239965	0.01176	0.00099	0.63840	0.76961	0.00000	0.00000	0.01596	0.14066	0.18555	9.93773
 1620114981	  924239965	0.01227	0.00080	0.64062	0.76776	-0.00426	0.00000	0.01596	0.13767	0.19213	9.98322
 1620114981	  979239965	0.01184	-0.00126	0.64095	0.76748	-0.00426	0.00000	0.01490	0.12629	0.19992	9.95689
 1620114982	   79239965	0.01149	0.00034	0.64155	0.76699	0.00000	-0.00532	0.01596	0.14784	0.17119	9.95270
 1620114982	  398239965	0.01044	0.00125	0.64333	0.76551	0.00000	0.00000	0.01383	0.14724	0.21129	9.95868
 1620114982	  477239965	0.01078	0.00047	0.64373	0.76517	0.00000	0.00000	0.01277	0.13348	0.18136	9.94192
 1620114982	  569239965	0.01285	0.00073	0.64416	0.76478	0.00000	0.00000	0.01277	0.14485	0.20770	9.96108
 1620114982	  933239965	0.01239	0.00154	0.64587	0.76334	0.00426	0.00000	0.00851	0.12929	0.20231	9.94791
 1620114982	  977239965	0.01019	0.00305	0.64601	0.76325	0.00426	0.00000	0.00958	0.14126	0.20590	9.94671
 1620114983	   77239965	0.01282	0.00199	0.64639	0.76289	0.00000	0.00000	0.00958	0.12749	0.21428	9.94970
 1620114983	  315125926	0.01165	0.00185	0.64710	0.76230	0.00000	0.00000	0.00639	0.12390	0.19932	9.93414
 1620114983	  344125926	0.01297	0.00079	0.64719	0.76221	0.00000	0.00000	0.00745	0.15682	0.20650	9.95210
 1620114983	  458125926	0.01179	0.00108	0.64738	0.76207	0.00000	-0.00532	0.00426	0.13647	0.18615	9.96826
 1620114983	  563125926	0.00920	0.00236	0.64741	0.76208	0.00000	-0.00426	0.00000	0.10654	0.18794	9.96108
 1620114983	  808125926	0.01129	0.00083	0.64741	0.76205	0.00000	-0.00426	0.00000	0.13647	0.20231	9.93294
 1620114983	  862125926	0.01329	0.00118	0.64739	0.76204	0.00000	0.00000	0.00000	0.13228	0.19273	9.93055
 1620114983	  953125926	0.01222	0.00164	0.64739	0.76205	0.00000	0.00000	0.00000	0.13408	0.19752	9.93474
 1620114984	   56125926	0.01400	0.00288	0.64736	0.76204	0.00000	0.00000	0.00000	0.13827	0.20889	9.94911
 1620114984	  328125926	0.00004	0.00776	0.64725	0.76223	0.00000	0.00000	-0.00532	0.11971	0.19213	9.96108
 1620114984	  371125926	0.00375	0.00568	0.64720	0.76228	0.00000	0.00426	-0.00532	0.12390	0.19992	9.92576
 1620114984	  435125926	0.00933	0.00268	0.64707	0.76236	0.00000	0.00426	-0.00639	0.11851	0.20530	9.94851
 1620114984	  565125926	0.01007	0.00046	0.64672	0.76266	0.00000	0.00000	-0.00745	0.12390	0.19513	9.92397
 1620114984	  833125926	0.01161	0.00158	0.64586	0.76336	0.00000	0.00000	-0.01064	0.12270	0.20530	9.92995
 1620114984	  860125926	0.00959	0.00158	0.64574	0.76349	0.00000	0.00000	-0.01064	0.10594	0.19632	9.99160
 1620114984	  958125926	0.01126	0.00656	0.64528	0.76383	0.00000	0.00000	-0.01064	0.13587	0.20411	9.96227
 1620114985	   58125926	0.01169	0.00115	0.64495	0.76413	0.00000	-0.00532	-0.01171	0.12629	0.20770	9.96108
 1620114985	  439125926	0.00852	0.00061	0.64310	0.76573	0.00000	0.00000	-0.01383	0.14305	0.20231	9.94551
 1620114985	  464125926	0.01096	0.00155	0.64294	0.76583	0.00000	0.00000	-0.01383	0.13048	0.21488	9.95030
 1620114985	  553125926	0.01204	0.00192	0.64244	0.76624	0.00000	0.00000	-0.01490	0.12390	0.20830	9.94611
 1620114985	  992031068	0.01284	0.00412	0.64009	0.76818	0.00000	0.00000	-0.01277	0.13946	0.21967	9.97065
 1620114986	   50031068	0.01233	0.00178	0.63982	0.76842	0.00000	0.00000	-0.01277	0.12629	0.21668	9.99160
 1620114986	  390031068	0.01369	0.00128	0.63799	0.76992	0.00000	0.00000	-0.01171	0.12989	0.21308	9.94491
 1620114986	  443031068	0.01202	0.00203	0.63778	0.77012	0.00000	0.00000	-0.01171	0.11552	0.21009	9.95868
 1620114986	  562031068	0.01728	0.00581	0.63717	0.77050	0.00000	0.00000	-0.01064	0.12091	0.21847	9.96527
 1620114986	  958031068	0.01262	-0.00005	0.63582	0.77173	0.00000	0.00000	-0.00851	0.14186	0.21129	9.92037
 1620114987	   55031068	0.01247	0.00188	0.63550	0.77199	0.00000	0.00000	-0.00639	0.12270	0.20830	9.95150
 1620114987	  417031068	0.01539	-0.00227	0.63498	0.77237	0.00000	0.00000	0.00000	0.12749	0.19273	9.97005
 1620114987	  450031068	0.01334	0.00025	0.63497	0.77241	0.00000	0.00000	0.00000	0.13168	0.21129	9.93534
 1620114987	  564031068	0.01485	0.00286	0.63493	0.77241	0.00000	0.00000	0.00000	0.13707	0.21129	9.99220
 1620114988	    3031068	0.00942	0.00247	0.63500	0.77245	0.00000	0.00000	0.00000	0.11791	0.20231	9.94551
 1620114988	   41031068	0.01171	0.00208	0.63499	0.77242	0.00000	0.00000	0.00000	0.11432	0.19932	9.94911
 1620114988	  325299953	0.00771	0.00030	0.63547	0.77208	0.00000	-0.00532	0.00532	0.15622	0.19573	9.95449
 1620114988	  343299953	0.00936	0.00093	0.63550	0.77204	0.00000	-0.00426	0.00639	0.11073	0.20111	9.95329
 1620114988	  451299953	0.01467	0.00279	0.63575	0.77175	0.00000	0.00000	0.00745	0.12869	0.20650	9.94252
 1620114988	  558299953	0.01126	0.00142	0.63614	0.77149	-0.00426	0.00000	0.00851	0.11971	0.19453	9.97843
 1620114988	  791299953	0.01259	0.00138	0.63695	0.77079	0.00000	0.00000	0.01064	0.14664	0.22027	9.93354
 1620114988	  819299953	0.01437	0.00008	0.63705	0.77068	0.00000	0.00000	0.00958	0.14784	0.22087	9.94911
 1620114988	  958299953	0.01179	-0.00170	0.63769	0.77020	0.00000	0.00000	0.01064	0.12151	0.21847	9.95988
 1620114989	   71299953	0.01523	0.00179	0.63815	0.76976	0.00000	0.00000	0.01171	0.14066	0.22565	9.94132
 1620114989	  315299953	0.01243	0.00134	0.63937	0.76879	0.00000	0.00000	0.01171	0.13886	0.21727	9.97484
 1620114989	  351299953	0.01122	0.00315	0.63954	0.76866	0.00000	0.00000	0.01383	0.11432	0.20770	9.95689
 1620114989	  457299953	0.01160	0.00124	0.64015	0.76816	0.00000	0.00000	0.01490	0.12809	0.19393	9.95329
 1620114989	  555299953	0.01117	0.00202	0.64066	0.76773	0.00000	0.00000	0.01490	0.10475	0.18615	9.95509
 1620114989	  911299953	0.01202	0.00103	0.64259	0.76611	0.00000	-0.00426	0.01490	0.12929	0.20949	9.95210
 1620114989	  965299953	0.01044	-0.00018	0.64293	0.76584	0.00000	-0.00426	0.01490	0.12989	0.18256	9.93115
 1620114990	   52299953	0.01133	0.00165	0.64336	0.76547	0.00000	0.00000	0.01383	0.12390	0.19812	9.95748
 1620114990	  292299953	0.01094	0.00061	0.64465	0.76439	0.00000	0.00000	0.01277	0.12390	0.20949	9.95150
 1620114990	  358299953	0.01069	0.00226	0.64496	0.76413	0.00000	0.00000	0.01277	0.12809	0.16819	9.95389
 1620114990	  462299953	0.01540	0.00191	0.64538	0.76370	0.00000	0.00000	0.01171	0.12989	0.21488	9.92576
 1620114990	  554299953	0.00714	0.00280	0.64587	0.76340	0.00000	0.00000	0.01171	0.11372	0.20411	9.94491
 1620114990	  858959917	0.00926	-0.00027	0.64709	0.76235	0.00000	0.00000	0.00851	0.12809	0.19273	9.97484
 1620114990	  873959917	0.01054	0.00076	0.64713	0.76230	0.00000	0.00000	0.00851	0.12450	0.19812	9.94611
 1620114990	  961959917	0.01136	0.00169	0.64741	0.76205	0.00000	0.00000	0.00745	0.12091	0.19573	9.96706
 1620114991	   81959917	0.01128	0.00343	0.64771	0.76179	-0.00426	0.00000	0.00745	0.12091	0.20051	9.98023
 1620114991	  465959917	0.01158	0.00085	0.64838	0.76122	0.00000	0.00000	0.00426	0.13827	0.19932	9.95210
 1620114991	  572959917	0.01102	0.00317	0.64844	0.76117	-0.00745	0.00000	0.00000	0.14605	0.19273	9.94372
 1620114991	  970959917	0.00978	0.00024	0.64847	0.76117	-0.00532	0.00000	0.00000	0.12091	0.15263	9.95928
 1620114992	   77959917	0.01281	0.00283	0.64844	0.76115	0.01490	0.00000	0.00000	0.12270	0.22685	9.98023
 1620114992	  318959917	0.01291	0.00181	0.64834	0.76123	0.00000	0.00426	-0.00532	0.13886	0.21428	9.94731
 1620114992	  360959917	0.01335	0.00083	0.64827	0.76129	0.00000	0.00532	-0.00532	0.13647	0.21668	9.95270
 1620114992	  463959917	0.00977	0.00225	0.64809	0.76149	-0.01171	0.00000	-0.00639	0.08080	0.17238	9.96108
 1620114992	  570959917	0.01364	0.00062	0.64785	0.76164	0.00000	0.00000	-0.00639	0.19932	0.24181	9.86950
 1620114992	  895959917	0.00869	0.00035	0.64647	0.76288	-0.01703	-0.00745	-0.01916	0.10235	0.14186	10.08617
 1620114992	  964959917	0.01040	0.00050	0.64585	0.76338	-0.01277	-0.01064	-0.02448	0.13408	0.14245	9.79468
 1620114993	   58959917	0.01041	-0.00059	0.64487	0.76421	-0.00851	-0.00426	-0.03086	0.14066	0.15622	9.82102
 1620114993	  317904033	0.00528	-0.00374	0.64049	0.76793	0.00532	0.00000	-0.06172	0.10714	0.13647	9.96407
 1620114993	  368904033	0.00961	-0.00106	0.63923	0.76895	0.00745	0.00000	-0.06492	0.14186	0.15203	9.94372
 1620114993	  463904033	0.00896	0.00124	0.63659	0.77115	0.00745	0.00000	-0.07343	0.10056	0.14425	9.94312
 1620114993	  536904033	0.01104	0.00012	0.63445	0.77288	0.01703	0.00000	-0.07875	0.13587	0.16640	9.96407
 1620114993	  844904033	0.00947	0.00097	0.62469	0.78081	0.01809	0.00000	-0.08088	0.11133	0.15981	9.94312
 1620114993	  860904033	0.00979	0.00163	0.62415	0.78124	0.02661	0.00426	-0.08088	0.11612	0.15921	9.92157
 1620114993	  981904033	0.01217	0.00256	0.62023	0.78432	0.01596	0.00532	-0.07662	0.11133	0.21668	9.95090
 1620114994	   62904033	0.01352	0.00165	0.61802	0.78604	0.00639	0.00745	-0.07556	0.14066	0.25199	9.92157
 1620114994	  334904033	0.01650	0.00129	0.61037	0.79194	0.01171	0.00000	-0.06598	0.13467	0.26635	9.92875
 1620114994	  359904033	0.01588	0.00195	0.60986	0.79234	0.00000	0.00000	-0.06172	0.14186	0.27533	9.98861
 1620114994	  457904033	0.01267	0.00136	0.60750	0.79422	-0.00958	0.00000	-0.05853	0.14425	0.23104	9.97843
 1620114994	  542904033	0.01271	0.00224	0.60558	0.79568	-0.00851	-0.00532	-0.05427	0.11372	0.19453	9.97065
 1620114994	  843904033	0.01244	0.00134	0.59997	0.79992	-0.01490	-0.00851	-0.03938	0.12989	0.21967	9.99400
 1620114994	  856904033	0.01352	0.00169	0.59976	0.80006	-0.01490	-0.00532	-0.03831	0.13527	0.25319	9.98262
 1620114994	  975904033	0.01241	0.00408	0.59809	0.80132	-0.01490	-0.02022	-0.03299	0.09158	0.27473	9.92816
 1620114995	   57904033	0.01435	0.00022	0.59710	0.80203	-0.01171	0.00532	-0.02980	0.20231	0.26755	9.96108
 1620114995	  416904033	0.01346	0.00155	0.59384	0.80447	0.00000	0.01171	-0.01703	0.11851	0.23822	10.00956
 1620114995	  444904033	0.01117	0.00153	0.59363	0.80466	0.00000	0.01277	-0.01596	0.12270	0.18974	9.91738
 1620114995	  565904033	0.01145	0.00021	0.59299	0.80513	0.00000	0.00851	-0.01277	0.12330	0.19213	9.90661
 1620114995	  979241075	0.00627	0.00197	0.59225	0.80572	0.00000	0.00000	0.00000	0.10235	0.20470	9.95689
 1620114995	  994241075	0.00730	0.00191	0.59225	0.80572	0.00000	-0.00639	0.00000	0.11971	0.23104	9.97784
 1620114996	   60241075	0.01280	0.00148	0.59234	0.80558	0.00000	-0.00851	0.00532	0.12629	0.22625	9.95928
 1620114996	  491241075	0.01447	-0.00053	0.59481	0.80373	0.00426	-0.01064	0.02128	0.11851	0.22446	9.94970
 1620114996	  569241075	0.01283	0.00092	0.59553	0.80322	0.00426	-0.00532	0.02448	0.13168	0.21548	9.95689
 1620114997	   41241075	0.01325	0.00173	0.60101	0.79913	0.00426	0.01383	0.02980	0.12570	0.23942	9.95090
 1620114997	   61241075	0.01365	0.00195	0.60125	0.79894	0.00000	0.01277	0.03086	0.13108	0.23583	9.92576
 1620114997	  371241075	0.01276	0.00455	0.60497	0.79612	-0.00745	0.00532	0.02873	0.08380	0.26157	9.94970
 1620114997	  486241075	0.01026	0.00382	0.60619	0.79524	-0.00958	0.00532	0.02661	0.10295	0.21787	9.95509
 1620114997	  519241075	0.01096	0.00356	0.60660	0.79492	-0.00532	0.00000	0.02554	0.08499	0.20949	9.96287
 1620114997	  852241075	0.01334	0.00220	0.60956	0.79262	-0.00639	-0.00958	0.02022	0.12689	0.24301	9.96467
 1620114997	  980241075	0.01211	0.00149	0.61059	0.79185	0.00000	-0.01383	0.01809	0.11193	0.21428	9.94731
 1620114998	   73241075	0.01272	0.00291	0.61131	0.79128	0.00000	-0.01064	0.01809	0.11073	0.23343	9.95389
 1620114998	  449989929	0.01517	0.00224	0.61350	0.78954	0.00639	0.00000	0.01490	0.13886	0.21847	9.95689
 1620114998	  456989929	0.01427	0.00244	0.61357	0.78950	0.00532	0.00000	0.01490	0.13827	0.25438	9.96227
 1620114998	  496989929	0.01187	0.00105	0.61384	0.78934	0.00000	0.00000	0.01383	0.14964	0.24301	9.93294
 1620114998	  587989929	0.01226	0.00211	0.61435	0.78893	-0.00426	0.00532	0.01490	0.11372	0.21787	9.97424
 1620114998	  855989929	0.01229	0.00234	0.61579	0.78780	0.00745	0.00639	0.01064	0.11851	0.21668	9.93594
 1620114998	  875989929	0.01283	0.00176	0.61587	0.78774	0.00426	0.00745	0.01171	0.13707	0.22027	9.92636
 1620114999	   10989929	0.01121	0.00160	0.61647	0.78729	0.00000	0.00000	0.01171	0.11013	0.20291	9.94312
 1620114999	   87989929	0.01240	0.00298	0.61678	0.78702	0.00639	0.00000	0.01171	0.12210	0.18435	9.94851
 1620114999	  348989929	0.01371	0.00128	0.61792	0.78612	0.00000	-0.00532	0.00958	0.11971	0.22266	9.92636
 1620114999	  381989929	0.01262	0.00252	0.61804	0.78604	0.00000	-0.00639	0.01064	0.11791	0.23284	9.94611
 1620114999	  497989929	0.01076	-0.00030	0.61844	0.78575	0.00000	-0.00745	0.00745	0.13408	0.20770	9.88566
 1620114999	  592989929	0.01241	0.00257	0.61860	0.78560	0.00000	-0.00532	0.00000	0.11971	0.23284	9.91559
 1620114999	  899989929	0.01611	0.00576	0.61852	0.78558	0.00000	0.00000	0.00000	0.11013	0.22146	9.95449
 1620114999	  919989929	0.01480	0.00423	0.61855	0.78559	0.00000	0.00000	0.00000	0.12450	0.22386	9.96706
 1620114999	  992989929	0.01264	0.00154	0.61860	0.78560	-0.00426	0.00000	0.00000	0.13288	0.22446	9.94731
 1620115000	   83989929	0.01238	0.00162	0.61860	0.78560	0.00000	0.00000	0.00000	0.12689	0.21308	9.92935
 1620115000	  347989929	0.00920	-0.00485	0.61867	0.78557	-0.00745	0.00000	0.00000	0.12809	0.21548	9.93294
 1620115000	  390989929	0.01084	-0.00100	0.61863	0.78560	-0.00639	0.00000	0.00000	0.11492	0.21069	9.99340
 1620115000	  491989929	0.01214	0.00259	0.61859	0.78561	0.00000	0.00000	0.00000	0.11133	0.21787	9.96467
 1620115000	  607989929	0.00868	0.00362	0.61859	0.78565	0.00000	0.00000	0.00000	0.10175	0.20710	9.94851
 1620115000	  864207044	0.01343	0.00136	0.61858	0.78560	0.00000	-0.00532	0.00000	0.13108	0.21428	9.97484
 1620115000	  881207044	0.01270	0.00183	0.61858	0.78561	0.00000	-0.00532	0.00000	0.13228	0.21787	9.92756
 1620115000	  995207044	0.01433	0.00294	0.61855	0.78560	0.00000	0.00000	0.00000	0.11911	0.23942	10.00118
 1620115001	   73207044	0.01499	-0.00034	0.61858	0.78557	0.00000	-0.00426	0.00000	0.13288	0.20411	9.95270
 1620115001	  399207044	0.01297	0.00127	0.61858	0.78560	0.00532	0.00000	0.00000	0.12689	0.22266	9.97843
 1620115001	  427207044	0.01243	0.00166	0.61858	0.78561	0.00532	0.00000	0.00000	0.12749	0.21847	9.92696
 1620115001	  574207044	0.01405	0.00157	0.61857	0.78559	0.00532	0.00000	0.00000	0.12570	0.22266	9.95988
 1620115001	  992207044	0.01203	0.00442	0.61856	0.78563	0.00000	0.00000	0.00000	0.13348	0.21069	9.95928
 1620115002	   81207044	0.01249	0.00289	0.61857	0.78562	0.00000	0.00000	0.00000	0.09996	0.23104	9.94132
 1620115002	  508207044	0.01448	0.00212	0.61859	0.78557	-0.00639	0.00000	0.00000	0.13228	0.22386	9.94970
 1620115002	  581207044	0.01430	0.00395	0.61857	0.78558	-0.00639	0.00000	0.00000	0.11791	0.21668	9.92097
 1620115002	  921207044	0.01171	0.00144	0.61886	0.78540	0.00000	0.00000	0.00426	0.11791	0.20470	9.93354
 1620115002	  981207044	0.01314	0.00221	0.61892	0.78533	0.00000	0.00000	0.00426	0.11372	0.19812	9.95509
 1620115003	   67207044	0.01270	0.00326	0.61900	0.78528	0.00000	0.00000	0.00426	0.10594	0.23523	9.94611
 1620115003	  399699098	0.01232	0.00139	0.61924	0.78510	0.00000	0.00000	0.00000	0.12989	0.20949	9.92995
 1620115003	  464699098	0.01286	0.00148	0.61927	0.78506	0.00000	0.00000	0.00426	0.12989	0.20650	9.98562
 1620115003	  560699098	0.01224	0.00181	0.61940	0.78497	0.00000	0.00000	0.00426	0.12330	0.21488	9.94611
 1620115004	   23699098	0.01326	0.00201	0.61948	0.78489	0.00000	-0.00426	0.00000	0.13168	0.22865	9.97544
 1620115004	   66699098	0.01239	0.00129	0.61949	0.78490	0.00000	0.00000	0.00000	0.13527	0.20830	9.96167
 1620115004	  329699098	0.01153	-0.00189	0.61953	0.78488	0.00000	0.00000	0.00000	0.13288	0.21129	9.94970
 1620115004	  367699098	0.01259	0.00169	0.61949	0.78489	0.00000	0.00000	0.00000	0.12809	0.21967	9.92277
 1620115004	  466699098	0.01184	0.00179	0.61949	0.78490	0.00000	0.00000	0.00000	0.15562	0.21727	9.94312
 1620115004	  540699098	0.01267	0.00154	0.61949	0.78489	0.00000	0.00000	0.00000	0.13168	0.21428	9.96167
 1620115004	  825699098	0.01411	0.00041	0.61949	0.78487	-0.00426	0.00426	0.00000	0.12869	0.19333	9.95030
 1620115004	  858699098	0.01158	0.00184	0.61949	0.78491	-0.00426	0.00000	0.00000	0.11073	0.20351	9.95150
 1620115004	  945699098	0.01183	0.00215	0.61948	0.78491	-0.00426	0.00000	0.00000	0.11193	0.21129	9.94791
 1620115005	   72699098	0.01120	0.00163	0.61949	0.78492	0.00000	0.00000	0.00000	0.11791	0.19632	9.94491
 1620115005	  362699098	0.01167	0.00240	0.61948	0.78492	0.00000	0.00000	0.00000	0.11612	0.20949	9.95868
 1620115005	  446699098	0.01187	-0.00027	0.61950	0.78490	0.00000	-0.00426	0.00000	0.10594	0.19992	9.98322
 1620115005	  575699098	0.01059	0.00197	0.61949	0.78493	0.00000	0.00000	0.00000	0.10834	0.21129	9.95329
 1620115005	  845967941	0.01524	0.00241	0.61944	0.78488	0.00000	0.00000	0.00000	0.12809	0.21847	9.94731
 1620115005	  924967941	0.01118	0.00057	0.61949	0.78492	0.00000	0.00000	0.00000	0.12570	0.20411	9.96946
 1620115005	  991967941	0.01280	-0.00028	0.61949	0.78489	0.00000	0.00000	0.00000	0.12629	0.20650	9.92037
 1620115006	   58967941	0.01200	0.00357	0.61946	0.78493	0.00000	0.00000	0.00000	0.13108	0.22625	9.93115
 1620115006	  353967941	0.01851	-0.00329	0.61948	0.78478	0.00000	0.00000	0.00000	0.13707	0.21967	9.96586
 1620115006	  376967941	0.01642	-0.00145	0.61948	0.78483	0.00000	0.00000	0.00000	0.14245	0.21308	9.94851
 1620115006	  464967941	0.00984	-0.00003	0.61951	0.78492	0.00000	0.00000	0.00000	0.12629	0.19872	9.92995
 1620115006	  560967941	0.01143	0.00185	0.61949	0.78492	0.00000	0.00000	0.00000	0.12031	0.20291	9.94372
 1620115006	  959967941	0.01290	0.00613	0.61942	0.78492	-0.00639	0.00000	0.00000	0.13288	0.21907	9.95988
 1620115006	  974967941	0.01280	0.00458	0.61945	0.78492	-0.00639	0.00000	0.00000	0.12210	0.22386	9.97245
 1620115007	   54967941	0.01209	0.00244	0.61947	0.78491	-0.00639	0.00000	0.00000	0.11612	0.21249	9.92097
 1620115007	  345967941	0.00912	0.00180	0.61949	0.78494	-0.00532	0.00000	0.00000	0.11672	0.21249	9.96347
 1620115007	  376967941	0.02222	0.00189	0.61938	0.78477	0.00000	0.00000	0.00000	0.13348	0.19872	9.95270
 1620115007	  470967941	0.01320	0.00097	0.61948	0.78489	0.00000	0.00000	0.00000	0.13467	0.20889	9.95868
 1620115007	  585967941	0.01092	0.00082	0.61950	0.78492	0.00000	0.00000	0.00000	0.14664	0.22565	9.93713
 1620115007	  873967941	0.01288	0.00115	0.61948	0.78490	0.00000	0.00000	0.00000	0.13587	0.21069	9.97005
 1620115007	  977967941	0.01428	-0.00122	0.61950	0.78486	0.00000	0.00000	0.00000	0.14425	0.22206	9.94970
 1620115008	   72967941	0.01273	0.00187	0.61948	0.78490	0.00000	0.00000	0.00000	0.12989	0.22206	9.95389
 1620115008	  371956974	0.01522	0.00864	0.61939	0.78489	0.00000	0.00000	0.00000	0.14365	0.21668	9.93893
 1620115008	  438956974	0.01277	0.00239	0.61949	0.78489	0.00000	0.00000	0.00000	0.12031	0.22865	9.94551
 1620115008	  549956974	0.01497	-0.00066	0.61950	0.78485	0.00000	0.00000	0.00000	0.11612	0.22565	9.94372
 1620115008	  849956974	0.01257	0.00177	0.61949	0.78490	0.00000	0.00000	0.00000	0.11672	0.21368	9.94312
 1620115008	  946956974	0.01311	0.00092	0.61949	0.78489	0.00000	0.00000	0.00000	0.14664	0.21668	9.95689
 1620115009	   49956974	0.01061	-0.00032	0.61952	0.78490	0.00000	0.00000	0.00000	0.13288	0.21189	9.93115
 1620115009	  331956974	0.01327	0.00364	0.61946	0.78490	0.00000	0.00000	0.00000	0.13048	0.21847	9.92397
 1620115009	  370956974	0.00861	-0.00505	0.61956	0.78488	-0.00426	0.00426	0.00000	0.14006	0.19692	9.93294
 1620115009	  456956974	0.01231	0.00119	0.61949	0.78490	0.00000	0.00000	0.00000	0.13288	0.20650	9.92756
 1620115009	  578956974	0.01288	0.00130	0.61948	0.78490	0.00000	0.00000	0.00000	0.12629	0.21787	9.93953
 1620115010	   17956974	0.01186	0.00572	0.61943	0.78493	0.00000	0.00000	0.00000	0.12091	0.23403	9.93115
 1620115010	   27956974	0.01201	0.00460	0.61945	0.78493	0.00000	0.00000	0.00000	0.13946	0.21847	9.95150
 1620115010	  415956974	0.01454	0.00348	0.61943	0.78491	0.00000	0.00000	0.00000	0.11133	0.20231	9.95150
 1620115010	  456956974	0.01319	0.00252	0.61945	0.78492	0.00000	0.00000	0.00000	0.12390	0.23463	9.96108
 1620115010	  572956974	0.01302	0.00320	0.61944	0.78492	0.00000	0.00000	0.00000	0.11672	0.22924	9.96048
 1620115010	  795956974	0.01366	0.00427	0.61945	0.78490	0.00000	0.00000	0.00426	0.12629	0.23703	9.95868
 1620115010	  951428030	0.01101	-0.00111	0.61954	0.78489	0.00000	0.00000	0.00000	0.12091	0.21727	9.95808
 1620115011	    4428030	0.01215	0.00204	0.61950	0.78490	0.00000	0.00000	0.00000	0.12210	0.21308	9.99699
 1620115011	   95428030	0.00957	0.00130	0.61952	0.78492	0.00000	0.00000	0.00000	0.13467	0.21907	9.96766
 1620115011	  360428030	0.00964	0.00599	0.61947	0.78494	0.00000	0.00000	0.00000	0.13587	0.23044	9.93055
 1620115011	  397428030	0.01163	0.00296	0.61949	0.78490	0.00000	0.00000	0.00000	0.10534	0.21967	9.92756
 1620115011	  473428030	0.01265	0.00182	0.61950	0.78489	-0.00426	0.00000	0.00000	0.12929	0.21608	9.97484
 1620115011	  592428030	0.01335	0.00105	0.61952	0.78486	-0.00426	0.00000	0.00000	0.14425	0.21488	9.93713
 1620115011	  850428030	0.01249	0.00159	0.61951	0.78488	-0.00426	0.00000	0.00000	0.12989	0.21368	9.95629
 1620115011	  921428030	0.01220	0.00397	0.61948	0.78490	-0.00532	0.00000	0.00000	0.11851	0.22027	9.95389
 1620115012	   29428030	0.00961	0.00435	0.61949	0.78493	-0.00426	0.00000	0.00000	0.10415	0.20650	9.95569
 1620115012	  120428030	0.01344	-0.00051	0.61952	0.78486	0.00000	0.00000	0.00000	0.13707	0.20411	9.95150
 1620115012	  417428030	0.00810	0.00257	0.61952	0.78493	0.00000	0.00000	0.00000	0.13707	0.22326	9.96108
 1620115012	  455428030	0.01159	0.00158	0.61952	0.78489	0.00000	0.00000	0.00000	0.11313	0.19932	9.94911
 1620115012	  593428030	0.01291	0.00170	0.61951	0.78488	0.00000	0.00000	0.00000	0.13348	0.22326	9.95150
 1620115012	  909428030	0.01317	0.00156	0.61950	0.78488	0.00000	0.00000	0.00000	0.13886	0.22326	9.93055
 1620115013	    7428030	0.01132	0.00028	0.61953	0.78489	0.00000	0.00000	0.00000	0.12091	0.21548	9.93953
 1620115013	   88428030	0.01231	0.00172	0.61951	0.78489	0.00000	0.00000	0.00000	0.11851	0.20650	9.94252
 1620115013	  427256000	0.01392	0.00127	0.61950	0.78487	0.00000	0.00000	0.00000	0.14186	0.22745	9.95748
 1620115013	  447256000	0.01308	0.00105	0.61951	0.78488	0.00000	0.00000	0.00000	0.13886	0.21428	9.92456
 1620115013	  511256000	0.01185	0.00161	0.61951	0.78489	0.00000	0.00000	0.00000	0.11672	0.23583	9.94911
 1620115013	  854256000	0.01279	0.00100	0.61950	0.78488	0.00000	0.00000	0.00000	0.14664	0.22386	9.95988
 1620115013	  896256000	0.01188	0.00381	0.61948	0.78491	0.00000	0.00000	0.00000	0.13168	0.21129	9.97065
 1620115014	   31256000	0.01382	-0.00055	0.61951	0.78486	0.00000	0.00000	0.00000	0.13647	0.21129	9.93654
 1620115014	  428256000	0.00849	-0.00255	0.61956	0.78489	0.00000	0.00000	0.00000	0.12450	0.22505	9.92397
 1620115014	  544256000	0.01208	0.00133	0.61951	0.78489	0.00000	0.00000	0.00000	0.12689	0.20171	9.95090
 1620115014	  852256000	0.01260	0.00150	0.61950	0.78489	0.00000	-0.00426	0.00000	0.13048	0.21368	9.96287
 1620115014	  940256000	0.01191	0.00178	0.61950	0.78490	0.00000	0.00000	0.00000	0.11911	0.20830	9.96167
 1620115015	   21256000	0.01307	0.00221	0.61949	0.78489	0.00000	0.00000	0.00000	0.12929	0.22565	9.94312
 1620115015	  339256000	0.01643	0.00773	0.61939	0.78487	0.00000	0.00000	0.00000	0.12330	0.21847	9.96108
 1620115015	  356256000	0.01565	0.00626	0.61942	0.78487	0.00000	0.00000	0.00000	0.14724	0.22505	9.94252
 1620115015	  432256000	0.01212	0.00129	0.61951	0.78489	0.00426	0.00000	0.00000	0.14245	0.19632	9.94611
 1620115015	  495256000	0.01226	0.00195	0.61950	0.78489	0.00000	0.00000	0.00000	0.12510	0.21668	10.00297
 1620115015	  998216903	0.00857	0.00178	0.61953	0.78492	0.00000	0.00000	0.00000	0.10175	0.19213	9.95928
 1620115016	   96216903	0.01521	0.00241	0.61948	0.78486	0.00000	0.00000	0.00000	0.12270	0.21488	9.95030
 1620115016	  719216903	0.01014	0.00215	0.61952	0.78491	0.00000	0.00000	0.00000	0.14245	0.20231	9.94970
 1620115017	   81216903	0.01249	0.00252	0.61950	0.78489	0.00000	0.00000	0.00000	0.11791	0.21548	9.94432
 1620115017	  629216903	0.01106	0.00233	0.61951	0.78490	0.00000	0.00000	0.00000	0.12629	0.21608	9.95090
 1620115018	   14216903	0.01265	0.00231	0.61950	0.78489	0.00000	0.00000	0.00000	0.13108	0.22386	9.94791
 1620115018	   82216903	0.01290	0.00066	0.61951	0.78487	0.00000	0.00000	0.00000	0.13647	0.20411	9.92696
 1620115018	  385474889	0.00395	-0.00798	0.61962	0.78485	0.00000	0.00000	0.00000	0.13467	0.19752	9.92995
 1620115018	  441474889	0.00757	-0.00378	0.61958	0.78488	0.00000	0.00000	0.00000	0.12869	0.21488	9.97604
 1620115018	  527474889	0.01303	0.00266	0.61950	0.78488	0.00000	0.00000	0.00000	0.12210	0.22326	9.95210
 1620115018	  827474889	0.01181	0.00184	0.61951	0.78489	0.00000	0.00000	0.00000	0.11791	0.20710	9.92217
 1620115018	  918474889	0.01191	0.00146	0.61951	0.78489	0.00000	0.00000	0.00000	0.11492	0.19692	9.94491
 1620115019	   37474889	0.01190	0.00185	0.61951	0.78489	0.00000	0.00000	0.00000	0.11971	0.21847	9.92935
 1620115019	  378474889	0.01408	0.00063	0.61957	0.78481	0.00000	-0.00426	0.00426	0.13946	0.22386	9.94132
 1620115019	  384474889	0.00273	0.01088	0.61973	0.78473	0.00000	-0.00426	0.00426	0.12989	0.22206	9.94731
 1620115019	  409474889	0.00470	0.00904	0.61976	0.78472	0.00000	0.00000	0.00000	0.12270	0.21727	9.94192
 1620115019	  511474889	0.01216	0.00227	0.61982	0.78464	0.00000	0.00000	0.00000	0.12749	0.21608	9.97125
 1620115019	  805474889	0.01364	0.00102	0.61991	0.78455	0.00426	0.00000	0.00000	0.12210	0.19573	9.94312
 1620115019	  828474889	0.01286	0.00185	0.61991	0.78456	0.00000	0.00000	0.00000	0.13587	0.21428	9.94491
 1620115019	  946474889	0.01030	0.00424	0.61989	0.78460	0.00000	0.00000	0.00000	0.11971	0.20770	9.98203
 1620115020	   27474889	0.01266	-0.00043	0.61993	0.78455	0.00000	0.00000	0.00000	0.10953	0.23224	9.96946
 1620115020	  352474889	0.01286	0.00434	0.61988	0.78458	0.00000	0.00000	0.00000	0.12330	0.21668	9.94851
 1620115020	  369474889	0.01188	-0.00718	0.61999	0.78448	0.00000	0.00000	0.00000	0.11432	0.20889	9.97784
 1620115020	  425474889	0.01233	-0.00114	0.61994	0.78454	0.00000	0.00000	0.00000	0.13587	0.21787	9.94551
 1620115020	  552474889	0.01474	0.00208	0.61989	0.78454	0.00000	0.00000	0.00000	0.15024	0.19992	9.94073
 1620115020	  881104110	0.01053	0.00181	0.61992	0.78459	-0.00426	0.00000	0.00000	0.13108	0.21189	9.93175
 1620115020	  957104110	0.01473	0.00061	0.61990	0.78454	-0.00426	0.00000	0.00000	0.12629	0.21189	9.94911
 1620115021	   47104110	0.00901	0.00504	0.61989	0.78462	-0.00532	-0.01171	0.00000	-0.28611	0.25139	10.70687
 1620115021	  440104110	-0.00328	-0.02918	0.62721	0.77829	-0.00851	0.28414	-0.03831	-2.35530	-2.85209	16.24466
 1620115021	  493104110	0.00467	-0.03995	0.62797	0.77719	0.00000	-0.18411	0.10855	1.15341	-4.09947	-2.10630
 1620115021	  559104110	0.00422	-0.03830	0.62699	0.77807	0.10216	-0.46080	0.14580	-0.76914	-0.93972	2.98557
 1620115021	  922104110	0.00605	-0.01579	0.62776	0.77822	-0.03618	0.02235	-0.02873	0.00778	0.57221	9.25479
 1620115021	  973104110	0.00777	-0.01053	0.62809	0.77803	0.01490	-0.01490	0.01383	0.05387	0.39684	10.47164
 1620115022	   69104110	0.00399	-0.00353	0.62766	0.77846	0.01383	-0.10855	0.02128	-0.41599	0.40402	10.27412
 1620115022	  384104110	-0.00162	0.02005	0.62721	0.77859	0.00000	0.00000	-0.00639	-0.28371	0.21308	9.96826
 1620115022	  394104110	-0.00154	0.01889	0.62721	0.77861	0.00000	0.00000	-0.00426	-0.26396	0.17717	9.90481
 1620115022	  449104110	0.00032	0.01810	0.62747	0.77842	0.00000	0.00000	0.00532	-0.27473	0.31125	9.94132
 1620115022	  561104110	0.00105	0.02005	0.62741	0.77842	0.00000	0.00000	0.00426	-0.34536	0.12510	9.93115
 1620115022	  916104110	0.00043	0.02027	0.62717	0.77862	0.00000	0.00000	0.00532	-0.23463	0.08619	9.90122
 1620115022	  970104110	0.00213	0.01889	0.62721	0.77861	0.00000	0.00000	0.00000	-0.24181	0.36811	10.08677
 1620115023	   75104110	-0.00076	0.02057	0.62709	0.77867	0.00000	0.00000	-0.00958	-0.32801	0.20770	9.90840
 1620115023	  434705949	-0.00004	0.00940	0.62721	0.77879	0.00000	0.00000	0.00000	-0.27414	0.28491	9.97065
 1620115023	  538705949	0.00345	0.01667	0.62716	0.77870	0.00000	0.00000	0.00000	-0.27354	0.25438	9.83957
 1620115023	  770705949	-0.00041	0.01723	0.62698	0.77884	0.00000	0.00000	0.00000	-0.27713	0.21428	9.95808
 1620115023	  864705949	0.00372	0.02514	0.62692	0.77866	0.00000	0.00000	0.00000	-0.32022	0.32980	9.95509
 1620115023	  956705949	0.00188	0.01886	0.62699	0.77879	0.00000	0.00000	0.00000	-0.26336	0.30885	9.99041
 1620115024	   48705949	0.00245	0.02048	0.62698	0.77876	0.00000	0.00000	0.00000	-0.28730	0.29389	9.95808
 1620115024	  396705949	0.00029	0.01887	0.62697	0.77881	0.00000	0.00000	0.00000	-0.29209	0.24301	9.95629
 1620115024	  417705949	0.00415	0.03220	0.62681	0.77849	0.00000	0.00000	0.00000	-0.28371	0.30646	9.93474
 1620115024	  460705949	0.00305	0.02809	0.62687	0.77860	0.00000	0.00000	0.00000	-0.28790	0.25019	9.94611
 1620115024	  560705949	0.00050	0.01951	0.62697	0.77879	0.00000	0.00000	0.00000	-0.30107	0.29509	9.97903
 1620115024	  816705949	0.00100	0.02110	0.62696	0.77876	0.00000	0.00000	0.00000	-0.54049	0.10175	10.25856
 1620115024	  826705949	0.00091	0.02072	0.62696	0.77877	0.00958	-0.03618	0.00000	-0.10355	0.24541	9.42537
 1620115024	  901705949	0.00509	0.02014	0.62704	0.77871	0.00426	0.00532	0.00532	-0.35853	0.17777	9.97843
 1620115025	   50705949	0.00210	0.02120	0.62705	0.77868	0.00000	-0.00426	0.00000	-0.31005	0.30047	10.02153
 1620115025	  387705949	0.00130	0.01164	0.62711	0.77884	0.00000	0.00000	-0.00532	-0.30406	0.29628	9.99819
 1620115025	  437705949	0.00172	0.01659	0.62702	0.77882	0.00000	0.00000	0.00000	-0.28611	0.28311	9.93713
 1620115025	  572705949	0.00133	0.02077	0.62696	0.77877	0.00000	0.00000	0.00000	-0.31663	0.27773	9.95928
 1620115025	  894284946	0.00409	0.02211	0.62698	0.77871	0.00000	0.00000	0.00000	-0.29030	0.31304	9.96048
 1620115025	  973284946	0.00050	0.01993	0.62695	0.77880	0.00000	0.00000	0.00000	-0.29868	0.26396	9.95808
 1620115026	   63284946	0.00166	0.02077	0.62696	0.77877	0.00000	0.00000	0.00000	-0.30107	0.27713	9.90900
 1620115026	  411284946	0.00426	0.01781	0.62703	0.77877	0.00000	0.00000	0.00000	-0.32022	0.21129	9.90721
 1620115026	  462284946	0.00054	0.02071	0.62692	0.77880	0.00000	0.00000	0.00000	-0.35195	0.27054	9.99220
 1620115026	  577284946	0.00324	0.01890	0.62699	0.77879	0.00000	0.00000	0.00000	-0.26456	0.25977	9.91798
 1620115027	  243284946	0.00224	0.01985	0.62697	0.77878	0.00000	0.00000	0.00000	-0.28072	0.28252	9.95150
 1620115027	  669284946	0.00385	0.02310	0.62680	0.77882	0.00000	0.00000	-0.00426	-0.26456	0.32202	9.91319
 1620115027	  696284946	0.00111	0.02160	0.62678	0.77889	0.00000	0.00000	0.00000	-0.31304	0.19154	9.95150
 1620115028	   26284946	0.00208	0.01973	0.62681	0.77891	0.00000	0.00000	0.00000	-0.26576	0.24541	9.91798
 1620115028	   63284946	0.00075	0.01893	0.62680	0.77894	0.00000	0.00000	0.00000	-0.28431	0.25379	9.98203
 1620115028	  430243896	-0.00068	0.01863	0.62678	0.77897	0.00000	0.00000	0.00000	-0.30646	0.30227	9.94312
 1620115028	  448243896	0.00104	0.02013	0.62679	0.77892	0.00000	0.00000	0.00000	-0.30885	0.33160	9.94791
 1620115028	  552243896	0.00178	0.02048	0.62679	0.77891	0.00000	0.00000	0.00000	-0.29389	0.27653	9.91798
 1620115028	  884243896	0.00269	0.01790	0.62685	0.77893	0.00000	0.00000	0.00000	-0.28910	0.29149	9.92935
 1620115028	  965243896	0.00320	0.02211	0.62679	0.77886	0.00000	0.00000	0.00000	-0.30347	0.28431	9.92696
 1620115029	   66243896	0.00214	0.01990	0.62681	0.77891	0.00000	0.00000	0.00000	-0.28491	0.28072	9.94432
 1620115029	  435243896	-0.00675	0.02041	0.62664	0.77901	0.00000	0.00000	0.00000	-0.30646	0.29868	9.93594
 1620115029	  488243896	-0.00195	0.02055	0.62673	0.77896	0.00000	0.00000	0.00000	-0.29509	0.28072	9.94671
 1620115029	  562243896	0.00199	0.02038	0.62679	0.77891	0.00000	0.00000	0.00000	-0.28910	0.28730	9.95629
 1620115029	  887243896	0.00303	0.02027	0.62681	0.77890	0.00000	0.00000	0.00000	-0.28012	0.30107	9.97544
 1620115029	  935243896	0.00098	0.02102	0.62677	0.77892	0.00000	0.00000	0.00000	-0.31903	0.27354	9.94073
 1620115030	   85243896	0.00248	0.02368	0.62675	0.77885	0.00000	0.00000	0.00000	-0.31603	0.29209	9.96407
 1620115030	  168243896	0.00190	0.02173	0.62677	0.77889	0.00000	0.00000	0.00000	-0.30825	0.29090	9.93893
 1620115030	  252243896	0.00185	0.02054	0.62679	0.77891	0.00000	0.00000	0.00000	-0.29808	0.26935	9.95689
 1620115030	  400243896	-0.00082	0.02053	0.62675	0.77895	0.00000	0.00000	0.00000	-0.31005	0.26755	9.95808
 1620115030	  460243896	0.00594	0.02066	0.62684	0.77884	0.00000	0.00000	0.00000	-0.29808	0.28192	9.95808
 1620115030	  558243896	0.00270	0.02312	0.62676	0.77886	0.00000	0.00000	0.00000	-0.29748	0.29329	9.94671
 1620115030	  679243896	0.00193	0.02113	0.62679	0.77890	0.00000	0.00000	0.00000	-0.30347	0.29987	9.96167
 1620115030	  780243896	0.00425	0.01931	0.62685	0.77889	0.00000	0.00000	0.00000	-0.30765	0.28491	9.96766
 1620115030	  853243896	0.00028	0.01949	0.62678	0.77894	0.00000	0.00000	0.00000	-0.29389	0.25977	9.93773
 1620115030	  976918954	0.00227	0.02075	0.62680	0.77890	0.00000	0.00000	0.00000	-0.29030	0.28072	9.95449
 1620115031	   87918954	0.00024	0.02147	0.62676	0.77891	0.00000	0.00000	0.00000	-0.29509	0.27713	9.95329
 1620115031	  178918954	0.00276	0.02091	0.62680	0.77889	0.00000	0.00000	0.00000	-0.29149	0.29389	9.92217
 1620115031	  262918954	0.00178	0.02055	0.62679	0.77891	0.00000	0.00000	0.00000	-0.28910	0.28671	9.93354
 1620115031	  419918954	0.00521	0.01100	0.62695	0.77896	0.00000	0.00000	0.00000	-0.29329	0.28850	9.94671
 1620115031	  484918954	0.00258	0.01761	0.62685	0.77893	0.00000	0.00000	0.00000	-0.29928	0.28730	9.95329
 1620115031	  581918954	0.00240	0.02054	0.62681	0.77890	0.00000	0.00000	0.00000	-0.28431	0.28730	9.94312
 1620115031	  663918954	0.00246	0.02119	0.62680	0.77888	0.00000	0.00000	0.00000	-0.29808	0.30347	9.94372
 1620115031	  777918954	0.00175	0.02235	0.62677	0.77888	0.00000	0.00000	0.00000	-0.29868	0.28790	9.94491
 1620115031	  862918954	0.00205	0.02128	0.62679	0.77889	0.00000	0.00000	0.00000	-0.29149	0.28551	9.94970
 1620115031	  993918954	-0.00056	0.02167	0.62674	0.77892	0.00000	0.00000	0.00000	-0.29568	0.28730	9.96946
 1620115032	   80918954	0.00254	0.02239	0.62678	0.77887	0.00000	0.00000	0.00000	-0.29449	0.30406	9.94132
 1620115032	  169918954	0.00139	0.02016	0.62679	0.77892	0.00000	0.00000	0.00000	-0.29329	0.27414	9.93235
 1620115032	  293918954	0.00425	0.02064	0.62683	0.77887	0.00000	0.00000	0.00000	-0.29748	0.28671	9.93115
 1620115032	  472918954	0.00425	0.02064	0.62683	0.77887	0.00000	0.00000	0.00000	-0.29748	0.28671	9.93115
 1620115032	  536918954	-0.00774	0.02092	0.62662	0.77900	0.00000	0.00000	0.00000	-0.28730	0.29509	9.93534
 1620115032	  685918954	0.00158	0.02080	0.62679	0.77891	0.00000	0.00000	0.00000	-0.30646	0.28192	9.94611
 1620115032	  816918954	0.00162	0.02150	0.62677	0.77890	0.00000	0.00000	0.00000	-0.31843	0.29209	9.93354
