Sec	Nsec	OrientX	OrientY	OrientZ	OrientW	AngVelX	AngVelY	AngVelZ	AccX	AccY	AccZ
 1620115641	  265754001	-0.00694	0.00422	0.92449	-0.38110	0.00000	0.00000	0.00000	-0.11672	0.10714	9.93235
 1620115641	  346754001	-0.00903	0.00341	0.92449	-0.38108	0.00426	0.00639	0.00000	-0.15802	0.11013	9.94551
 1620115641	  454754001	-0.00830	0.00306	0.92449	-0.38108	0.00000	0.00000	0.00000	-0.12749	0.10894	9.94491
 1620115641	  567754001	-0.00747	0.00128	0.92451	-0.38108	0.00000	-0.00426	0.00000	-0.14186	0.09457	9.91618
 1620115641	  679754001	-0.00810	0.00215	0.92450	-0.38108	0.00745	0.00000	0.00000	-0.12689	0.12031	9.92097
 1620115641	  752754001	-0.00842	0.00296	0.92450	-0.38108	0.00639	0.00000	0.00000	-0.15921	0.12989	9.95928
 1620115641	  883754001	-0.01482	0.00602	0.92441	-0.38105	-0.00745	-0.00958	0.00000	-0.13168	0.12270	9.92995
 1620115641	  966754001	-0.00921	0.00218	0.92449	-0.38107	-0.00958	-0.00532	0.00000	-0.15622	0.10654	9.91618
 1620115642	   58754001	-0.00944	0.00281	0.92449	-0.38107	0.00000	0.00000	0.00000	-0.14545	0.11732	9.91858
 1620115642	  169754001	-0.00965	0.00527	0.92447	-0.38109	-0.00426	0.00000	0.00000	-0.16520	0.12031	9.95808
 1620115642	  260754001	-0.00883	0.00266	0.92449	-0.38108	-0.00426	0.00000	0.00000	-0.12390	0.10235	9.94851
 1620115642	  359033023	-0.00743	0.00286	0.92450	-0.38109	-0.00532	0.00000	0.00000	-0.11253	0.10894	9.92097
 1620115642	  434033023	-0.00868	0.00241	0.92449	-0.38108	0.00000	0.00000	0.00000	-0.14126	0.12809	9.91678
 1620115642	  566033023	-0.00567	0.00668	0.92448	-0.38113	-0.00426	0.00000	0.00000	-0.12450	0.10774	9.93713
 1620115642	  668033023	-0.00736	0.00199	0.92450	-0.38109	-0.00426	-0.00639	0.00000	-0.12390	0.09517	9.96108
 1620115642	  748033023	-0.00747	0.00207	0.92450	-0.38109	0.00000	-0.00426	0.00000	-0.12210	0.09936	9.96108
 1620115642	  880033023	-0.01710	0.00787	0.92436	-0.38105	0.00000	-0.00426	0.00000	-0.12510	0.11672	9.93833
 1620115642	  973033023	-0.00829	0.00342	0.92449	-0.38109	0.00000	-0.00745	0.00000	-0.12390	0.11612	9.94432
 1620115643	   54033023	-0.00746	0.00173	0.92450	-0.38108	0.00000	-0.00532	0.00000	-0.12629	0.09397	9.94372
 1620115643	  176033023	-0.00702	0.00076	0.92451	-0.38108	0.00532	0.00000	0.00000	-0.13228	0.12390	9.97305
 1620115643	  253033023	-0.01060	0.00233	0.92448	-0.38107	0.00000	0.00000	0.00000	-0.14844	0.11432	9.97305
 1620115643	  347033023	-0.00666	0.00741	0.92446	-0.38113	0.00000	0.00000	0.00000	-0.12869	0.13048	9.94432
 1620115643	  458033023	-0.00759	0.00246	0.92449	-0.38111	0.00000	0.00000	0.00000	-0.12031	0.10295	9.91678
 1620115643	  568033023	-0.00724	0.00193	0.92450	-0.38111	0.00000	0.00426	0.00000	-0.11612	0.09697	9.94731
 1620115643	  664033023	-0.00881	0.00275	0.92448	-0.38111	0.00000	0.00426	0.00000	-0.15083	0.10953	9.95030
 1620115643	  747033023	-0.00806	0.00171	0.92448	-0.38114	0.00000	0.00426	0.00000	-0.13527	0.09038	9.93594
 1620115643	  882033023	-0.00305	-0.00362	0.92451	-0.38112	0.00000	0.00426	0.00000	-0.13527	0.10295	9.92456
 1620115644	  301033023	-0.00859	0.00296	0.92446	-0.38115	0.00000	0.00000	0.00000	-0.13647	0.09756	9.93654
 1620115644	  309033023	-0.00810	0.00249	0.92447	-0.38115	0.00000	0.00000	0.00000	-0.13707	0.11013	9.93893
 1620115644	  430033023	-0.00736	0.00250	0.92448	-0.38115	0.00000	-0.00532	0.00000	-0.10534	0.10594	9.91798
 1620115644	  452033023	-0.00673	0.00227	0.92448	-0.38115	0.00000	-0.00532	0.00000	-0.10953	0.08320	9.95150
 1620115644	  899751886	-0.01555	0.00866	0.92435	-0.38112	0.00000	0.00000	0.00000	-0.12031	0.11612	9.93713
 1620115644	  909751886	-0.01475	0.00803	0.92437	-0.38112	0.00000	0.00000	0.00000	-0.12989	0.10654	9.90840
 1620115644	  927751886	-0.01303	0.00657	0.92440	-0.38113	0.00000	0.00000	0.00000	-0.13707	0.09816	9.95270
 1620115645	  335751886	-0.00893	0.00228	0.92447	-0.38114	0.00000	0.00000	0.00000	-0.15083	0.11013	9.94671
 1620115645	  340751886	-0.00842	0.00226	0.92447	-0.38114	0.00000	0.00000	0.00000	-0.12390	0.09876	9.93175
 1620115645	  384751886	-0.01079	0.00501	0.92444	-0.38114	0.00000	0.00000	0.00000	-0.13467	0.12151	9.92636
 1620115645	  620751886	-0.00862	0.00198	0.92447	-0.38113	0.00000	0.00000	0.00000	-0.15203	0.09756	9.93534
 1620115645	  632751886	-0.00853	0.00176	0.92448	-0.38113	0.00000	0.00000	0.00000	-0.14305	0.09756	9.95150
 1620115645	  665751886	-0.00938	0.00422	0.92445	-0.38114	0.00426	0.00000	0.00000	-0.13827	0.11911	9.92277
 1620115645	  929751886	-0.00717	0.00050	0.92449	-0.38112	0.00745	0.00000	0.00000	-0.11672	0.08918	9.93115
 1620115645	  942751886	-0.00743	0.00178	0.92449	-0.38112	0.00851	0.00000	0.00000	-0.12151	0.10475	9.95210
 1620115645	  962751886	-0.00761	0.00245	0.92448	-0.38113	0.00745	0.00000	0.00000	-0.11372	0.09756	9.93773
 1620115649	  109668102	-0.00720	0.00403	0.92448	-0.38113	0.00000	-0.00426	0.00000	-0.13827	0.10953	9.92935
 1620115649	  246668102	-0.00959	0.00162	0.92448	-0.38110	0.00000	0.00000	0.00000	-0.13647	0.09876	9.92516
 1620115649	  299668102	-0.00880	0.00207	0.92448	-0.38111	0.00000	0.00000	0.00000	-0.13886	0.10056	9.94432
 1620115649	  417668102	-0.00674	0.00302	0.92449	-0.38113	-0.00532	0.00000	0.00000	-0.13348	0.11672	9.92397
 1620115649	  990223997	-0.00714	0.00682	0.92445	-0.38117	0.00000	0.00000	0.00000	-0.11372	0.13767	9.93594
 1620115650	  232223997	-0.00844	0.00241	0.92445	-0.38118	0.00426	0.00000	0.00000	-0.13647	0.10834	9.92277
 1620115650	  385223997	-0.00775	0.00298	0.92445	-0.38121	0.00532	0.00000	0.00000	-0.12031	0.11253	9.95988
 1620115650	  444223997	-0.00794	0.00342	0.92444	-0.38121	0.00426	0.00000	0.00000	-0.13408	0.10594	9.94970
 1620115650	  477223997	-0.00859	0.00275	0.92444	-0.38120	0.00000	0.00000	0.00000	-0.13647	0.11552	9.92696
 1620115650	  685223997	-0.00720	0.00336	0.92441	-0.38130	0.00000	0.00000	0.00000	-0.15263	0.10654	9.95210
 1620115650	  698223997	-0.00763	0.00261	0.92441	-0.38131	0.00000	0.00000	0.00426	-0.12330	0.09577	9.94851
 1620115650	  903223997	-0.00889	-0.00115	0.92438	-0.38135	0.00000	0.00000	0.00000	-0.11911	0.08799	9.92576
 1620115650	  925223997	-0.00825	0.00096	0.92438	-0.38136	0.00000	0.00000	0.00000	-0.13527	0.08978	9.93594
 1620115651	   56223997	-0.00673	0.00344	0.92438	-0.38139	0.00000	0.00000	0.00000	-0.11791	0.11432	9.95389
 1620115651	  152223997	-0.00759	0.00147	0.92437	-0.38140	0.00000	0.00000	0.00000	-0.12629	0.09876	9.92875
 1620115651	  269223997	-0.00846	0.00507	0.92432	-0.38148	0.00000	0.00000	0.00000	-0.12031	0.12869	9.94372
 1620115651	  347223997	-0.00738	0.00389	0.92434	-0.38148	0.00000	0.00000	0.00000	-0.11313	0.12629	9.98502
 1620115651	  459223997	-0.00758	0.00167	0.92434	-0.38147	-0.00426	0.00000	0.00000	-0.12570	0.08799	9.95449
 1620115651	  547223997	-0.00833	0.00227	0.92434	-0.38147	-0.00426	-0.00426	0.00000	-0.14186	0.10295	9.92097
 1620115651	  667223997	-0.00626	0.00341	0.92434	-0.38149	0.00000	-0.00426	0.00000	-0.14305	0.09816	9.96167
 1620115651	  760223997	-0.00884	0.00145	0.92434	-0.38146	0.00000	-0.00639	0.00000	-0.14964	0.09517	9.94491
 1620115651	  890223997	-0.00809	0.00440	0.92433	-0.38148	0.00000	-0.00532	0.00000	-0.11732	0.12629	9.91559
 1620115651	  962223997	-0.00745	0.00183	0.92435	-0.38146	0.00000	-0.00426	0.00000	-0.12869	0.09278	9.93235
 1620115652	   54223997	-0.01041	0.00244	0.92432	-0.38145	0.00426	-0.01490	0.00000	-0.22087	0.18016	9.97724
 1620115652	  186223997	-0.00913	0.00569	0.92430	-0.38150	-0.01064	-0.01064	0.00000	-0.10475	0.11372	9.79588
 1620115652	  259223997	-0.00571	-0.00010	0.92435	-0.38148	0.00000	0.00426	0.00000	-0.11492	0.06464	9.96167
 1620115652	  363943078	-0.00628	0.00242	0.92434	-0.38150	0.00000	0.00532	0.00000	-0.09637	0.09337	9.96886
 1620115652	  474943078	-0.00887	0.00109	0.92433	-0.38147	0.00000	0.00000	0.00000	-0.15622	0.08499	9.93414
 1620115652	  573943078	-0.00426	0.00161	0.92435	-0.38150	0.00000	0.00000	0.00000	-0.11073	0.10534	9.96826
 1620115652	  668943078	-0.00859	0.00295	0.92432	-0.38149	0.00000	0.00000	0.00000	-0.13587	0.14006	9.92456
 1620115652	  786943078	-0.00584	0.00289	0.92434	-0.38151	-0.00532	0.00000	0.00000	-0.08978	0.10175	9.95030
 1620115652	  932943078	-0.00658	0.00282	0.92433	-0.38150	-0.00532	0.00426	0.00000	-0.09756	0.09278	9.90840
 1620115652	  982943078	-0.01383	0.00761	0.92424	-0.38147	0.00639	0.00532	0.00000	-0.14365	0.09278	9.94911
 1620115653	  395943078	-0.00708	0.00126	0.92448	-0.38116	0.00639	0.00000	-0.00426	-0.12689	0.08260	9.91678
 1620115653	  484943078	-0.00905	0.00420	0.92451	-0.38101	0.02128	0.00639	0.00000	-0.14664	0.08859	9.99160
 1620115653	  565943078	-0.00967	0.00499	0.92452	-0.38097	0.00000	0.00000	-0.00426	-0.13827	0.16101	9.94252
 1620115653	  689943078	-0.00985	0.00061	0.92455	-0.38092	0.00958	0.00000	0.00000	-0.18435	0.08619	9.91738
 1620115653	  770943078	-0.00812	0.00550	0.92454	-0.38095	0.00000	0.00000	0.00000	-0.09996	0.16759	9.96227
 1620115653	  929943078	-0.00686	0.00070	0.92457	-0.38094	-0.01916	0.00000	0.00000	-0.13886	0.02693	9.97544
 1620115653	  945943078	-0.01278	0.00551	0.92449	-0.38095	0.00000	-0.00639	0.00000	-0.12270	0.10654	9.94132
 1620115654	   57943078	-0.00875	-0.00088	0.92455	-0.38095	-0.01277	0.00000	0.00000	-0.17657	0.06823	9.94372
 1620115654	  163943078	-0.00756	0.00498	0.92452	-0.38101	-0.01596	-0.00532	0.00000	-0.11133	0.14904	9.95389
 1620115654	  278943078	-0.00711	-0.00093	0.92454	-0.38100	-0.00958	-0.00745	0.00000	-0.19393	0.02933	9.94671
 1620115654	  381943078	-0.00819	0.00627	0.92450	-0.38104	0.00851	-0.00851	0.00000	-0.10714	0.17478	9.97424
 1620115654	  484943078	-0.00653	-0.00023	0.92454	-0.38101	0.00000	0.00000	0.00000	-0.11851	0.06045	9.99100
 1620115654	  583943078	-0.01086	0.00246	0.92437	-0.38132	0.02767	-0.00532	0.00745	-0.19034	0.12809	10.00956
 1620115654	  676943078	-0.00921	0.00774	0.92418	-0.38176	-0.01064	-0.00532	0.00958	-0.19932	0.13168	10.19212
 1620115654	  758943078	-0.00477	0.00255	0.92409	-0.38213	0.02128	-0.00745	0.00958	-0.03831	0.10056	9.98562
 1620115654	  954564998	-0.00651	0.00570	0.92390	-0.38253	0.00958	0.01064	0.01277	-0.02215	0.14904	9.91199
 1620115654	  993564998	-0.01072	-0.00085	0.92351	-0.38341	0.00745	-0.01809	0.01277	-0.06704	0.15502	10.01135
 1620115655	   64564998	-0.00630	0.00402	0.92335	-0.38388	-0.01171	-0.01490	0.01490	-0.07841	0.11851	9.91618
 1620115655	  170564998	-0.00874	0.00051	0.92304	-0.38459	0.00000	-0.02235	0.01383	-0.16101	0.07961	10.01854
 1620115655	  688564998	-0.00375	0.00059	0.92205	-0.38703	-0.01490	0.02235	0.00426	-0.06165	0.02274	9.95689
 1620115656	   22564998	-0.00371	0.00025	0.92207	-0.38699	-0.02235	-0.00532	-0.00851	-0.12989	0.02274	10.16698
 1620115656	   42564998	-0.00515	-0.00080	0.92210	-0.38691	-0.02341	-0.00532	-0.00851	-0.14545	0.04669	10.20109
 1620115656	  141564998	-0.00682	-0.00292	0.92227	-0.38645	0.00000	-0.01490	-0.01277	-0.12689	0.02454	10.31602
 1620115656	  149564998	-0.00633	-0.00170	0.92231	-0.38638	0.00000	-0.01703	-0.01383	-0.11552	0.03711	10.18374
 1620115656	  615564998	-0.00288	-0.00042	0.92458	-0.38096	0.04257	0.01490	-0.03405	-0.02035	0.10175	9.43435
 1620115656	  686564998	0.00057	0.00296	0.92505	-0.37983	0.00000	0.00000	-0.03299	0.03412	0.05088	10.13525
 1620115657	  161564998	-0.00597	0.00346	0.92830	-0.37176	0.00958	0.00000	-0.03831	-0.25259	0.26635	10.35073
 1620115657	  181564998	-0.00719	0.00412	0.92839	-0.37149	-0.01490	-0.02235	-0.03618	-0.18136	0.19393	10.03889
 1620115657	  532726997	-0.00616	-0.00042	0.93059	-0.36599	-0.06172	-0.03512	-0.02873	-0.06644	0.07362	9.93953
 1620115657	  550726997	-0.00636	0.00081	0.93072	-0.36567	-0.06704	-0.03725	-0.03299	-0.08799	0.11313	9.62649
 1620115657	  658726997	-0.00406	-0.00675	0.93120	-0.36441	-0.05321	-0.02448	-0.02235	-0.09218	-0.09637	9.89583
 1620115657	  952726997	-0.00719	-0.00127	0.93218	-0.36190	0.00426	-0.03299	-0.01171	-0.13048	0.00958	9.76954
 1620115657	  990726997	-0.00758	-0.00171	0.93224	-0.36176	0.00000	-0.02128	-0.00532	-0.12570	-0.00838	10.02572
 1620115658	   73726997	-0.00434	-0.00067	0.93226	-0.36175	0.01171	0.00000	0.00000	-0.05567	0.04968	9.94671
 1620115658	  151726997	0.00095	-0.00470	0.93223	-0.36183	0.04682	0.01809	0.00639	0.01197	-0.15024	9.87249
 1620115658	  541726997	-0.00534	0.00093	0.93113	-0.36465	0.01703	0.04789	0.02554	-0.22865	0.03651	10.03051
 1620115658	  556726997	-0.00640	0.00100	0.93107	-0.36476	0.01703	0.03831	0.02554	-0.11313	0.07422	9.63786
 1620115658	  656726997	-0.01155	-0.00573	0.93053	-0.36598	0.02448	0.01064	0.03086	-0.29509	-0.02873	9.91020
 1620115658	  962726997	-0.00774	-0.00693	0.92867	-0.37076	0.02767	-0.03618	0.04044	-0.10116	0.02274	9.58219
 1620115659	   51726997	-0.00457	0.00195	0.92800	-0.37255	-0.03725	-0.01490	0.04257	-0.02215	0.10295	10.23581
 1620115659	  123726997	-0.00450	0.00155	0.92747	-0.37385	-0.04789	0.00745	0.04150	-0.06105	0.09936	9.89524
 1620115659	  699726997	-0.00761	-0.00062	0.92188	-0.38739	-0.01064	-0.03193	0.05640	-0.20830	-0.02155	9.95389
 1620115660	  133436967	-0.00831	0.00537	0.91775	-0.39703	-0.02767	0.00000	0.04150	-0.13946	0.12330	9.95389
 1620115660	  156436967	-0.00680	0.00337	0.91758	-0.39746	-0.04044	0.00000	0.04044	-0.05866	0.07542	9.89823
 1620115660	  462436967	-0.00784	-0.00145	0.91552	-0.40218	-0.02022	0.02661	0.02873	-0.15024	0.04010	9.93833
 1620115660	  470436967	-0.00912	-0.00195	0.91544	-0.40234	-0.01916	0.02554	0.02767	-0.19273	0.03831	9.98861
 1620115660	  576436967	-0.00346	0.00162	0.91495	-0.40354	0.00000	0.02767	0.02341	-0.04369	0.07961	9.96108
 1620115660	  669436967	-0.00638	-0.00237	0.91458	-0.40433	0.02341	0.03725	0.01916	-0.13946	-0.01018	9.92696
 1620115661	  113436967	-0.00812	0.00163	0.91383	-0.40600	0.00000	-0.02341	0.00000	-0.15862	0.08380	9.95329
 1620115661	  179436967	-0.00751	-0.00143	0.91392	-0.40581	-0.00532	-0.03405	-0.00745	-0.14844	0.03711	9.95270
 1620115661	  448436967	-0.00874	0.00146	0.91460	-0.40425	0.01596	-0.01490	-0.01809	-0.13168	0.05746	9.92157
 1620115661	  464436967	-0.00708	0.00115	0.91468	-0.40411	0.01383	-0.01383	-0.01916	-0.11492	0.07183	9.92217
 1620115661	  569436967	-0.00428	0.00242	0.91517	-0.40303	-0.01277	-0.00851	-0.02554	-0.13228	0.06764	9.95569
 1620115661	  653436967	-0.00537	-0.00163	0.91564	-0.40195	-0.01703	-0.00426	-0.02873	-0.11073	0.01496	9.90481
 1620115662	    4436967	0.00286	0.00328	0.91778	-0.39706	-0.03086	0.00000	-0.02128	-0.04489	0.08499	9.93893
 1620115662	   85436967	-0.00464	0.00086	0.91802	-0.39649	-0.01064	0.00000	-0.00958	-0.11672	0.04429	9.94432
 1620115662	  169436967	-0.00714	0.00296	0.91809	-0.39628	0.00532	0.00000	-0.00532	-0.10953	0.11193	9.92636
 1620115662	  453551927	-0.00559	-0.00046	0.91827	-0.39592	0.00958	0.00000	-0.00532	-0.08739	0.03412	9.93414
 1620115662	  566551927	-0.00552	0.00185	0.91842	-0.39556	0.00851	0.00000	-0.00958	-0.12091	0.05507	9.94611
 1620115662	  709551927	-0.00520	-0.00436	0.91876	-0.39474	0.00000	0.00000	-0.01277	-0.09517	-0.00658	9.95988
 1620115663	  172551927	-0.00187	0.00129	0.91987	-0.39221	0.00745	0.00639	-0.01171	-0.11971	0.03112	9.90721
 1620115663	  552551927	-0.00624	-0.00011	0.92112	-0.38921	0.00639	0.00532	-0.02022	-0.11133	0.04549	9.96467
 1620115663	  570551927	-0.00775	-0.00054	0.92120	-0.38899	0.00639	0.00532	-0.02022	-0.14305	0.04908	9.93654
 1620115663	  647551927	-0.00816	0.00125	0.92148	-0.38833	0.00745	0.00000	-0.01916	-0.14006	0.08499	9.90541
 1620115664	  131551927	-0.00562	0.00112	0.92305	-0.38463	-0.00639	0.00000	-0.00745	-0.10714	0.06883	9.92875
 1620115664	  154551927	-0.00566	0.00197	0.92307	-0.38457	0.00000	0.00000	-0.00532	-0.09218	0.07482	9.91080
 1620115664	  552551927	-0.00639	0.00091	0.92326	-0.38410	0.00000	-0.00532	-0.00426	-0.11372	0.06764	9.95868
 1620115664	  680551927	-0.00726	0.00108	0.92339	-0.38377	0.00000	0.00000	-0.00532	-0.12510	0.07362	9.95270
 1620115664	  987787029	-0.01242	-0.00031	0.92384	-0.38257	0.00426	0.00000	-0.00958	-0.09457	0.06045	9.92576
 1620115665	   71787029	-0.00631	0.00125	0.92405	-0.38221	0.00000	0.00000	-0.01064	-0.10834	0.06823	9.95270
 1620115665	  170787029	-0.00712	0.00159	0.92426	-0.38167	-0.00639	0.00000	-0.01171	-0.12450	0.07183	9.90900
 1620115665	  454787029	-0.00562	0.00145	0.92494	-0.38005	0.00000	0.00426	-0.01277	-0.10355	0.07482	9.95748
 1620115665	  567787029	-0.00567	0.00228	0.92519	-0.37943	0.00000	0.00000	-0.01064	-0.10834	0.07661	9.93594
 1620115665	  662787029	-0.00724	0.00199	0.92535	-0.37902	0.00000	0.00000	-0.00958	-0.12210	0.08799	9.94192
 1620115666	   38787029	-0.00590	-0.00170	0.92610	-0.37721	0.00000	0.00000	-0.01064	-0.11612	0.06345	9.93474
 1620115666	   46787029	-0.00623	-0.00049	0.92612	-0.37716	0.00000	0.00000	-0.01064	-0.11372	0.05507	9.92816
 1620115666	   79787029	-0.00721	0.00152	0.92617	-0.37701	0.00000	0.00000	-0.01064	-0.12151	0.08260	9.93654
 1620115666	  156787029	-0.00775	0.00123	0.92631	-0.37667	0.00000	0.00000	-0.00958	-0.13408	0.08080	9.95389
 1620115666	  449787029	-0.00713	0.00278	0.92685	-0.37534	0.00000	0.00000	-0.00851	-0.11971	0.07781	9.93654
 1620115666	  462787029	-0.00714	0.00244	0.92689	-0.37526	0.00000	0.00000	-0.00958	-0.11013	0.08799	9.95090
 1620115666	  569787029	-0.00766	0.00295	0.92707	-0.37479	0.00000	0.00000	-0.00958	-0.10355	0.09337	9.94791
 1620115666	  669787029	-0.00797	0.00035	0.92724	-0.37438	0.00000	0.00000	-0.00851	-0.13408	0.06823	9.97365
 1620115667	   50787029	-0.01582	-0.00020	0.92767	-0.37306	0.00000	0.00000	-0.00532	-0.12450	0.06764	9.94851
 1620115667	   73787029	-0.01306	0.00014	0.92773	-0.37301	0.00000	0.00000	-0.00532	-0.11492	0.06823	9.95270
 1620115667	  164787029	-0.00585	0.00118	0.92789	-0.37280	0.00000	0.00000	-0.00532	-0.13048	0.07183	9.94073
 1620115667	  470395111	-0.00687	0.00044	0.92813	-0.37219	0.00000	0.00000	0.00000	-0.11492	0.07482	9.94791
 1620115667	  572395111	-0.00760	0.00146	0.92812	-0.37218	0.00000	0.00000	0.00000	-0.12510	0.08380	9.95928
 1620115667	  685395111	-0.00562	0.00274	0.92813	-0.37219	0.00000	0.00000	0.00000	-0.10834	0.07781	9.94851
 1620115668	   27395111	-0.00576	-0.00135	0.92814	-0.37217	0.00000	0.00000	0.00000	-0.10774	0.06584	9.96407
 1620115668	   33395111	-0.01175	0.01066	0.92801	-0.37220	0.00000	0.00000	0.00000	-0.12210	0.08799	9.95629
 1620115668	   58395111	-0.01061	0.00825	0.92805	-0.37220	0.00000	0.00000	0.00000	-0.12749	0.07482	9.92756
 1620115668	  135395111	-0.00763	0.00099	0.92813	-0.37218	0.00000	0.00000	0.00000	-0.14545	0.06464	9.96287
 1620115668	  520395111	-0.00613	0.00324	0.92803	-0.37244	0.00000	0.00000	0.00426	-0.11193	0.07302	9.95988
 1620115668	  582395111	-0.00554	-0.00066	0.92799	-0.37256	0.00000	0.00000	0.00532	-0.11073	0.07003	9.94671
 1620115668	  664395111	-0.00734	-0.00045	0.92789	-0.37277	0.00000	0.00000	0.00532	-0.12749	0.06404	9.94671
 1620115669	   66395111	-0.00771	0.00111	0.92731	-0.37421	0.00000	0.00000	0.00851	-0.11552	0.09158	9.94551
 1620115669	  168395111	-0.00699	0.00078	0.92714	-0.37463	0.00000	0.00000	0.00851	-0.12270	0.07362	9.93773
 1620115669	  532395111	-0.00628	0.00292	0.92648	-0.37628	0.00000	0.00000	0.00851	-0.12031	0.05926	9.92756
 1620115669	  555395111	-0.00686	0.00139	0.92643	-0.37639	0.00000	0.00000	0.00958	-0.11791	0.07961	9.95389
 1620115669	  673395111	-0.00771	-0.00233	0.92622	-0.37688	0.00000	0.00000	0.01064	-0.12629	0.06165	9.95928
 1620115670	  110870994	-0.00590	-0.00005	0.92538	-0.37899	0.00000	0.00000	0.01064	-0.11851	0.03771	9.91978
 1620115670	  163870994	-0.00662	0.00138	0.92529	-0.37920	0.00000	0.00000	0.00745	-0.11313	0.08080	9.92816
 1620115670	  548870994	-0.00798	-0.00120	0.92468	-0.38065	0.00000	0.00000	0.00745	-0.12989	0.08320	9.99041
 1620115670	  576870994	-0.00730	0.00168	0.92463	-0.38077	0.00000	0.00000	0.00745	-0.12749	0.07901	9.95030
 1620115670	  665870994	-0.00700	0.00075	0.92454	-0.38100	0.00000	0.00000	0.00426	-0.10415	0.07362	9.94073
 1620115671	    9870994	-0.00627	0.00039	0.92451	-0.38108	0.00000	0.00000	0.00000	-0.11432	0.05088	9.91858
 1620115671	   16870994	-0.01851	-0.00046	0.92438	-0.38102	0.00000	0.00000	0.00000	-0.12091	0.05746	9.94132
 1620115671	   69870994	-0.01312	0.00013	0.92446	-0.38105	0.00532	0.00000	0.00000	-0.12749	0.08021	9.94731
 1620115671	  167870994	-0.00683	0.00184	0.92450	-0.38109	0.00000	0.00000	0.00000	-0.11672	0.08918	9.95569
 1620115671	  472870994	-0.00701	0.00138	0.92450	-0.38109	0.00000	-0.00426	0.00000	-0.12450	0.07242	9.94132
 1620115671	  554870994	-0.00678	0.00124	0.92451	-0.38109	0.00000	0.00000	0.00000	-0.12570	0.06883	9.92217
 1620115671	  672870994	-0.00733	-0.00145	0.92451	-0.38107	0.00000	0.00000	0.00000	-0.11851	0.05567	9.91918
 1620115672	   47870994	-0.01094	0.00166	0.92464	-0.38068	0.00000	0.00000	-0.00426	-0.11971	0.07242	9.96586
 1620115672	   70870994	-0.00818	0.00169	0.92468	-0.38063	0.00000	0.00000	-0.00532	-0.11253	0.08918	9.94791
 1620115672	  180870994	-0.00686	0.00216	0.92479	-0.38040	0.00000	0.00000	-0.00639	-0.10953	0.09278	9.93953
 1620115672	  516513978	-0.00600	0.00348	0.92519	-0.37943	0.00000	0.00000	-0.00639	-0.12929	0.08021	9.94851
 1620115672	  559513978	-0.00755	0.00020	0.92524	-0.37929	0.00000	0.00000	-0.00639	-0.13946	0.05806	9.93354
 1620115672	  675513978	-0.00596	-0.00039	0.92541	-0.37891	0.00000	0.00000	-0.00639	-0.11013	0.07302	9.91499
 1620115673	   35513978	-0.00793	-0.00089	0.92592	-0.37763	0.00000	0.00000	-0.00745	-0.09697	0.08200	9.97365
 1620115673	   55513978	-0.00704	0.00087	0.92595	-0.37757	0.00000	-0.00426	-0.00745	-0.11492	0.07183	9.92097
 1620115673	  177513978	-0.00533	0.00300	0.92612	-0.37716	0.00000	0.00000	-0.00745	-0.12929	0.08918	9.94252
 1620115673	  558513978	-0.00657	-0.00014	0.92666	-0.37584	0.00000	0.00000	-0.00532	-0.12091	0.07302	9.94013
 1620115673	  583513978	-0.00682	0.00085	0.92667	-0.37579	0.00000	0.00000	-0.00532	-0.11791	0.07003	9.99041
 1620115673	  658513978	-0.00701	0.00186	0.92676	-0.37557	0.00000	0.00000	-0.00532	-0.11133	0.09457	9.95449
 1620115674	  111513978	-0.00756	0.00347	0.92714	-0.37461	0.00000	0.00000	-0.00426	-0.11612	0.07242	9.95329
 1620115674	  178513978	-0.00672	0.00381	0.92715	-0.37459	0.00000	0.00000	0.00000	-0.13587	0.08559	9.92456
 1620115674	  476513978	-0.00884	0.00352	0.92716	-0.37454	0.00000	0.00000	0.00000	-0.12510	0.05567	9.95748
 1620115674	  575513978	-0.00713	0.00073	0.92718	-0.37454	0.00000	-0.00426	0.00000	-0.12151	0.09038	9.96048
 1620115674	  659513978	-0.00734	0.00192	0.92717	-0.37454	0.00000	0.00000	0.00000	-0.11791	0.09218	9.95689
 1620115674	  991236904	-0.01007	0.00006	0.92716	-0.37452	0.00000	0.00000	0.00000	-0.13467	0.06823	9.99041
 1620115674	  997236904	-0.00039	0.00191	0.92720	-0.37456	0.00000	0.00000	0.00000	-0.12749	0.06464	9.92756
 1620115675	   45236904	-0.00521	0.00148	0.92719	-0.37454	0.00000	0.00000	0.00000	-0.11492	0.07781	9.95030
 1620115675	  166236904	-0.00896	0.00372	0.92716	-0.37454	0.00000	0.00000	0.00000	-0.11612	0.08619	9.91020
 1620115675	  497236904	-0.00559	0.00244	0.92699	-0.37501	0.00000	0.00000	0.00426	-0.11432	0.07302	9.94432
 1620115675	  535236904	-0.00738	0.00180	0.92695	-0.37509	0.00000	0.00000	0.00532	-0.12270	0.09337	9.92636
 1620115675	  645236904	-0.00651	-0.00168	0.92685	-0.37535	0.00000	0.00000	0.00426	-0.12809	0.07841	9.96287
 1620115676	   14236904	-0.00665	0.00144	0.92654	-0.37613	0.00000	0.00000	0.00851	-0.11133	0.07602	9.94252
 1620115676	   20236904	-0.01470	-0.00720	0.92630	-0.37643	0.00000	0.00000	0.00745	-0.13168	0.06704	9.94731
 1620115676	   53236904	-0.01216	-0.00427	0.92628	-0.37660	0.00000	0.00000	0.00745	-0.11253	0.07063	9.97305
 1620115676	  156236904	-0.00586	0.00234	0.92617	-0.37704	0.00000	-0.00426	0.00745	-0.11732	0.07482	9.94073
 1620115676	  414236904	-0.00756	0.00138	0.92580	-0.37792	0.00000	0.00000	0.00851	-0.12270	0.08140	9.95928
 1620115676	  448236904	-0.00478	0.00107	0.92577	-0.37803	0.00000	0.00000	0.00851	-0.10534	0.06943	9.97724
 1620115676	  554236904	-0.00747	0.00102	0.92560	-0.37841	0.00000	0.00000	0.00958	-0.13228	0.07183	9.93294
 1620115676	  633236904	-0.00663	0.00082	0.92548	-0.37873	0.00000	0.00000	0.00851	-0.11732	0.06105	9.96407
 1620115677	   14236904	-0.00732	0.00072	0.92511	-0.37962	0.00000	0.00000	0.00745	-0.12809	0.06823	9.93893
 1620115677	   68236904	-0.00253	0.00643	0.92485	-0.38026	0.00000	0.00000	0.00639	-0.10774	0.07003	9.93773
 1620115677	  154236904	-0.00804	0.00013	0.92475	-0.38048	0.00000	0.00000	0.00639	-0.11372	0.07362	9.94611
 1620115677	  418492095	-0.00702	0.00098	0.92444	-0.38125	0.00000	0.00000	0.00532	-0.12151	0.07123	9.92995
 1620115677	  464492095	-0.00776	-0.00120	0.92439	-0.38135	0.00000	0.00000	0.00532	-0.13108	0.07901	9.96946
 1620115677	  559492095	-0.00492	0.00259	0.92430	-0.38162	0.00000	0.00000	0.00532	-0.12330	0.06584	9.94791
 1620115677	  671492095	-0.00712	0.00168	0.92419	-0.38184	0.00000	0.00000	0.00532	-0.12749	0.08978	9.92456
 1620115678	   30492095	-0.00892	0.00178	0.92404	-0.38218	0.00000	0.00000	0.00000	-0.10295	0.06883	9.89763
 1620115678	   69492095	-0.00097	-0.00031	0.92408	-0.38219	0.00000	0.00000	0.00000	-0.11552	0.06464	9.93713
 1620115678	  170492095	-0.00829	0.00195	0.92404	-0.38218	0.00000	0.00000	0.00000	-0.10594	0.08200	9.94252
 1620115678	  433492095	-0.00680	0.00117	0.92405	-0.38219	0.00000	0.00000	0.00000	-0.11313	0.06704	9.92456
 1620115678	  456492095	-0.00719	0.00152	0.92405	-0.38219	0.00000	0.00000	0.00000	-0.11732	0.07602	9.94073
 1620115678	  557492095	-0.00757	0.00110	0.92405	-0.38219	0.00000	0.00000	0.00000	-0.13527	0.08260	9.96766
 1620115678	  664492095	-0.00832	-0.00010	0.92405	-0.38218	0.00000	0.00000	0.00000	-0.10834	0.07063	9.95210
 1620115679	   41492095	-0.00698	-0.00685	0.92405	-0.38213	0.00000	0.00000	0.00000	-0.12749	0.08918	9.93235
 1620115679	   59492095	-0.00690	-0.00513	0.92407	-0.38213	0.00000	0.00000	0.00000	-0.10654	0.07123	9.95210
 1620115679	  171492095	-0.00787	0.00463	0.92411	-0.38201	0.00000	0.00000	-0.00426	-0.10654	0.07602	9.99041
 1620115679	  556492095	-0.00624	0.00096	0.92452	-0.38106	0.00000	0.00000	-0.00639	-0.12151	0.07661	9.92516
 1620115679	  645492095	-0.00647	0.00190	0.92462	-0.38081	0.00000	0.00000	-0.00532	-0.09996	0.08440	9.92157
 1620115680	  114485015	-0.00711	0.00163	0.92522	-0.37934	0.00000	0.00000	-0.00745	-0.11133	0.08380	9.91918
 1620115680	  173485015	-0.00602	0.00006	0.92532	-0.37914	0.00000	0.00000	-0.00745	-0.10834	0.06704	9.93833
 1620115680	  497485015	-0.00800	0.00044	0.92572	-0.37812	0.00000	0.00000	-0.00639	-0.14365	0.06883	9.94671
 1620115680	  534485015	-0.00644	0.00175	0.92576	-0.37803	0.00000	0.00000	-0.00639	-0.10056	0.08559	9.97544
 1620115680	  671485015	-0.00118	-0.00016	0.92595	-0.37764	0.00000	0.00000	-0.00532	-0.11253	0.06404	9.93474
 1620115681	   31485015	-0.01309	0.01202	0.92614	-0.37675	0.00000	0.00000	-0.00532	-0.11612	0.09697	9.90481
 1620115681	   64485015	-0.01111	0.00863	0.92623	-0.37668	0.00000	0.00000	-0.00532	-0.11612	0.06584	9.94970
 1620115681	  135485015	-0.00776	0.00300	0.92633	-0.37661	0.00000	0.00000	0.00000	-0.11313	0.06943	9.93594
 1620115681	  523485015	-0.00674	0.00192	0.92635	-0.37658	0.00000	0.00000	0.00000	-0.11971	0.06404	9.93474
 1620115681	  551485015	-0.00798	0.00193	0.92635	-0.37657	0.00000	0.00000	0.00000	-0.13408	0.10953	9.95629
 1620115681	  658485015	-0.00499	0.00304	0.92636	-0.37659	0.00000	0.00000	0.00000	-0.10834	0.08021	9.95569
 1620115682	   32485015	0.00001	0.00230	0.92637	-0.37660	0.00000	0.00000	0.00000	-0.12929	0.06105	9.95748
 1620115682	   83485015	-0.00499	0.00164	0.92636	-0.37659	0.00000	0.00000	0.00000	-0.12570	0.08859	9.94611
 1620115682	  159485015	-0.00515	0.00167	0.92636	-0.37659	0.00000	0.00000	0.00000	-0.08140	0.06823	9.95329
 1620115682	  432319959	-0.00729	0.00217	0.92631	-0.37668	0.00000	0.00000	0.00426	-0.11911	0.08739	9.95090
 1620115682	  460319959	-0.00751	0.00139	0.92630	-0.37669	0.00000	0.00000	0.00000	-0.13408	0.07901	9.96108
 1620115682	  563319959	-0.00937	0.00359	0.92624	-0.37679	-0.00426	0.00000	0.00000	-0.12510	0.09816	9.94432
 1620115682	  647319959	-0.00544	0.00180	0.92619	-0.37701	0.00000	0.00000	0.00532	-0.11492	0.08799	9.94192
 1620115683	   43319959	0.00111	0.00213	0.92574	-0.37814	0.00000	0.00000	0.00639	-0.12270	0.06464	9.95030
 1620115683	   66319959	-0.00108	0.00192	0.92572	-0.37820	0.00000	0.00000	0.00639	-0.12091	0.06883	9.96048
 1620115683	  142319959	-0.00703	0.00155	0.92560	-0.37842	0.00000	0.00000	0.00639	-0.12510	0.09218	9.94791
 1620115683	  408319959	-0.00590	0.00162	0.92525	-0.37930	0.00000	0.00000	0.00851	-0.11492	0.06524	9.93055
 1620115683	  472319959	-0.00501	-0.00075	0.92515	-0.37956	0.00000	0.00000	0.00851	-0.10295	0.06345	9.94312
 1620115683	  550319959	-0.00745	0.00051	0.92502	-0.37982	0.00000	0.00000	0.00851	-0.12330	0.05926	9.93654
 1620115683	  653319959	-0.00744	0.00149	0.92486	-0.38021	0.00000	0.00000	0.00851	-0.12809	0.08499	9.96706
 1620115684	  100319959	-0.00728	-0.01388	0.92423	-0.38149	0.00000	0.00000	0.00639	-0.11971	0.08320	9.93893
 1620115684	  143319959	-0.00730	-0.00961	0.92422	-0.38166	0.00000	0.00000	0.00639	-0.13048	0.07063	9.97664
 1620115684	  166319959	-0.00731	-0.00735	0.92420	-0.38176	0.00000	0.00000	0.00745	-0.11612	0.07242	9.94132
 1620115684	  533319959	-0.00714	0.00430	0.92374	-0.38291	0.00000	0.00000	0.00532	-0.12151	0.07302	9.96048
 1620115684	  567319959	-0.00794	0.00060	0.92372	-0.38298	0.00000	0.00000	0.00532	-0.13228	0.08140	9.92157
 1620115684	  656319959	-0.00656	-0.00082	0.92365	-0.38316	0.00000	0.00000	0.00426	-0.13767	0.06943	9.94731
 1620115685	   42971952	-0.00584	-0.01058	0.92347	-0.38348	0.00000	-0.00426	0.00000	-0.13587	0.06045	9.96706
 1620115685	   57971952	-0.00588	-0.00892	0.92348	-0.38349	0.00000	0.00000	0.00000	-0.11073	0.06644	9.94911
 1620115685	   85971952	-0.00601	-0.00617	0.92349	-0.38352	0.00000	0.00000	0.00000	-0.10056	0.07063	9.92636
 1620115685	  161971952	-0.00677	0.00127	0.92348	-0.38357	0.00000	0.00000	0.00000	-0.11372	0.07602	9.94073
 1620115685	  484971952	-0.00671	0.00100	0.92348	-0.38357	0.00000	0.00000	0.00000	-0.12809	0.08260	9.94013
 1620115685	  566971952	-0.00684	0.00039	0.92348	-0.38356	0.00000	0.00000	0.00000	-0.12270	0.05926	9.94013
 1620115685	  682971952	-0.00758	-0.00073	0.92348	-0.38355	0.00000	0.00000	0.00000	-0.11851	0.05746	9.91738
 1620115686	   28971952	-0.00680	-0.00220	0.92349	-0.38355	0.00000	0.00000	0.00000	-0.13168	0.07242	9.95988
 1620115686	  194971952	-0.00743	0.00029	0.92349	-0.38354	0.00000	0.00000	0.00000	-0.12989	0.06584	9.95748
 1620115686	  458971952	-0.00746	0.00081	0.92369	-0.38306	0.00000	0.00000	-0.00532	-0.13108	0.07183	9.94791
 1620115686	  574971952	-0.00549	0.00018	0.92382	-0.38277	0.00000	0.00000	-0.00639	-0.13108	0.07961	9.94851
 1620115686	  658971952	-0.00781	0.00236	0.92389	-0.38257	0.00000	0.00000	-0.00532	-0.12210	0.08021	9.96946
 1620115687	   47971952	-0.00694	0.01293	0.92424	-0.38152	0.00000	0.00000	-0.00639	-0.11432	0.10654	9.93654
 1620115687	   85971952	-0.00704	0.00904	0.92435	-0.38137	0.00000	0.00000	-0.00745	-0.12031	0.06704	9.94671
 1620115687	  171971952	-0.00665	0.00101	0.92452	-0.38107	0.00000	0.00000	-0.00851	-0.11372	0.06644	9.93773
 1620115687	  452306961	-0.00632	0.00095	0.92490	-0.38014	0.00000	0.00000	-0.00639	-0.11253	0.06704	9.94970
 1620115687	  506306961	-0.00661	0.00088	0.92496	-0.38000	0.00000	0.00000	-0.00532	-0.11372	0.08799	9.96108
 1620115687	  665306961	-0.00821	-0.00001	0.92512	-0.37958	0.00000	0.00000	-0.00532	-0.12809	0.06883	9.94791
 1620115688	  134306961	-0.00562	-0.00091	0.92555	-0.37858	0.00000	0.00000	-0.00426	-0.10774	0.08200	9.93893
 1620115688	  167306961	-0.00684	0.00030	0.92554	-0.37857	0.00000	0.00000	0.00000	-0.12450	0.06345	9.97305
 1620115688	  696306961	-0.00449	-0.00065	0.92559	-0.37850	0.00000	0.00000	0.00000	-0.12450	0.07661	9.94132
 1620115689	   51306961	-0.01390	0.00704	0.92547	-0.37849	0.00000	0.00000	0.00000	-0.13827	0.08499	9.93055
 1620115689	   74306961	-0.01219	0.00560	0.92550	-0.37850	0.00000	0.00000	0.00000	-0.11253	0.07781	9.94312
 1620115689	  125306961	-0.00804	0.00193	0.92556	-0.37850	0.00000	0.00000	0.00000	-0.12989	0.08021	9.93654
 1620115689	  670306961	-0.00855	0.00258	0.92541	-0.37884	0.00000	0.00000	0.00000	-0.11492	0.08679	9.92456
 1620115690	  166987056	-0.00927	0.00213	0.92492	-0.38003	0.00000	0.00000	0.00639	-0.13946	0.07841	9.92636
 1620115690	  581987056	-0.00761	0.00147	0.92439	-0.38136	0.00000	0.00000	0.00745	-0.11253	0.05746	9.93833
 1620115690	  659987056	-0.00674	-0.00126	0.92429	-0.38162	0.00000	0.00000	0.00745	-0.11133	0.08320	9.94911
 1620115691	   35987056	-0.01182	-0.00425	0.92377	-0.38274	0.00000	0.00000	0.00639	-0.11432	0.08200	9.91978
 1620115691	   73987056	-0.00972	-0.00175	0.92375	-0.38286	0.00000	0.00000	0.00639	-0.13707	0.08200	9.96167
 1620115691	  167987056	-0.00710	0.00181	0.92365	-0.38316	0.00000	0.00000	0.00639	-0.11432	0.08380	9.96886
 1620115691	  449987056	-0.00713	0.00146	0.92330	-0.38399	0.00000	0.00000	0.00426	-0.12510	0.07602	9.94491
 1620115691	  464987056	-0.00714	0.00051	0.92330	-0.38401	0.00000	0.00000	0.00532	-0.12689	0.06464	9.96527
 1620115691	  553987056	-0.00700	0.00104	0.92321	-0.38423	0.00000	0.00000	0.00532	-0.12091	0.07841	9.96826
 1620115691	  667987056	-0.00534	0.00251	0.92311	-0.38449	0.00000	0.00000	0.00426	-0.10834	0.06943	9.94611
 1620115692	   40987056	-0.00226	-0.00002	0.92294	-0.38492	0.00000	0.00000	0.00000	-0.13408	0.06883	9.95090
 1620115692	   82987056	-0.00578	0.00102	0.92293	-0.38492	0.00000	0.00000	0.00000	-0.11851	0.07841	9.90781
 1620115692	  176987056	-0.00720	0.00120	0.92292	-0.38492	0.00000	0.00000	0.00000	-0.12270	0.07721	9.93474
 1620115692	  526645889	-0.00641	0.00109	0.92292	-0.38492	0.00000	0.00000	0.00000	-0.10714	0.07123	9.93654
 1620115692	  668645889	-0.00690	0.00075	0.92292	-0.38491	0.00000	0.00000	0.00000	-0.12450	0.08799	9.92576
 1620115692	  680645889	-0.00774	0.00118	0.92292	-0.38491	0.00000	0.00000	0.00000	-0.12330	0.07781	9.95509
 1620115693	  318645889	-0.02403	0.01762	0.92251	-0.38482	0.00000	0.00000	-0.00426	-0.12570	0.06524	9.94252
 1620115693	  357645889	-0.02090	0.01459	0.92266	-0.38476	0.00000	0.00000	-0.00426	-0.11732	0.07063	9.95569
 1620115693	  532645889	-0.00904	0.00260	0.92300	-0.38467	0.00000	0.00000	0.00000	-0.13348	0.08320	9.94731
 1620115693	  642645889	-0.00859	-0.00187	0.92311	-0.38441	0.00000	0.00000	-0.00532	-0.10475	0.07841	9.95868
 1620115693	  659645889	-0.00749	0.00003	0.92314	-0.38437	0.00000	0.00000	-0.00639	-0.11732	0.07542	9.93474
 1620115693	  939645889	-0.00641	0.00140	0.92345	-0.38365	0.00000	0.00000	-0.00532	-0.13527	0.08260	9.94252
 1620115694	  562645889	0.04006	-0.02067	0.92321	-0.38164	0.00000	0.00000	-0.00639	-0.10953	0.07721	9.94372
 1620115694	  647645889	0.03240	-0.01704	0.92362	-0.38154	0.00000	0.00000	-0.00639	-0.11791	0.09397	9.96227
 1620115694	  848325901	0.01475	-0.00889	0.92424	-0.38142	0.00000	0.00000	-0.00532	-0.11672	0.08799	9.94791
 1620115694	  853325901	0.01429	-0.00867	0.92425	-0.38141	0.00000	0.00000	-0.00532	-0.12091	0.08320	9.95868
 1620115694	  933325901	0.00658	-0.00516	0.92442	-0.38127	0.00000	0.00000	-0.00426	-0.12689	0.08021	9.91499
 1620115696	   23325901	0.00407	-0.00400	0.92444	-0.38128	0.00000	0.00000	0.00000	-0.12809	0.08260	9.94791
 1620115696	  169325901	-0.09203	0.04029	0.91970	-0.37954	0.00000	0.00000	0.00000	-0.13228	0.08619	9.94551
 1620115696	  396325901	-0.05915	0.02525	0.92248	-0.38063	0.00000	0.00000	0.00000	-0.12091	0.07362	9.94252
 1620115696	  408325901	-0.05809	0.02476	0.92255	-0.38066	0.00000	0.00000	0.00000	-0.09816	0.07063	9.90840
 1620115696	  474325901	-0.05215	0.02202	0.92292	-0.38080	0.00000	0.00000	0.00000	-0.10714	0.08559	9.94073
 1620115696	  563325901	-0.04408	0.01835	0.92334	-0.38100	0.00000	0.00000	0.00426	-0.12629	0.08978	9.91978
 1620115696	  676325901	-0.03400	0.01370	0.92370	-0.38135	0.00000	0.00000	0.00426	-0.12390	0.06943	9.95868
 1620115696	  957325901	-0.00790	0.00188	0.92403	-0.38222	0.00000	0.00000	0.00532	-0.12450	0.08559	9.95030
 1620115697	  150325901	-0.00748	0.00096	0.92397	-0.38239	0.00000	0.00000	0.00639	-0.13108	0.07362	9.94432
 1620115697	  181325901	0.00237	0.00230	0.92380	-0.38286	0.00000	0.00000	0.00639	-0.09397	0.08739	9.95210
 1620115697	  399473907	-0.00706	0.00162	0.92352	-0.38347	0.00000	0.00000	0.00532	-0.12031	0.08380	9.96527
 1620115697	  451473907	-0.00808	-0.00031	0.92346	-0.38360	0.00000	0.00000	0.00745	-0.12809	0.06764	9.94192
 1620115697	  555473907	-0.00690	0.00145	0.92332	-0.38395	0.00000	0.00000	0.00639	-0.11133	0.06345	9.92875
 1620115697	  656473907	-0.00957	0.00352	0.92317	-0.38425	0.00000	0.00000	0.00639	-0.11672	0.09158	9.92037
 1620115697	  917473907	-0.00763	0.00093	0.92284	-0.38510	0.00000	0.00000	0.00532	-0.14485	0.08260	9.92636
 1620115697	  945473907	-0.00622	0.00180	0.92280	-0.38521	0.00000	0.00000	0.00639	-0.10415	0.08200	9.95928
 1620115698	  132473907	-0.00380	0.01278	0.92247	-0.38582	0.00000	0.00000	0.00639	-0.10295	0.09038	9.92217
 1620115698	  157473907	-0.00443	0.01018	0.92248	-0.38588	0.00000	0.00000	0.00426	-0.11552	0.05327	9.94731
 1620115698	  420473907	-0.00620	0.00009	0.92225	-0.38653	0.00000	0.00000	0.00639	-0.11612	0.07422	9.94851
 1620115698	  443473907	-0.00642	0.00016	0.92223	-0.38658	0.00000	0.00000	0.00426	-0.11372	0.04609	9.95090
 1620115698	  558473907	-0.00503	-0.00185	0.92213	-0.38683	0.00000	0.00000	0.00532	-0.12390	0.07003	9.94073
 1620115698	  645473907	-0.00628	0.00318	0.92207	-0.38694	0.00000	0.00000	0.00426	-0.13587	0.08080	9.96048
 1620115698	  898473907	-0.00722	0.00105	0.92190	-0.38735	0.00000	0.00000	0.00426	-0.12450	0.06823	9.94432
 1620115698	  940473907	-0.00556	-0.00008	0.92190	-0.38737	0.00000	0.00000	0.00000	-0.11313	0.05447	9.94970
 1620115699	   95473907	-0.00937	-0.00145	0.92184	-0.38744	0.00000	0.00000	0.00532	-0.13048	0.06225	9.93594
 1620115699	  139473907	-0.00568	0.00202	0.92178	-0.38765	0.00000	0.00000	0.00000	-0.09397	0.07961	9.95689
 1620115699	  436473907	-0.00736	0.00197	0.92177	-0.38764	0.00000	0.00000	0.00000	-0.12270	0.06285	9.93474
 1620115699	  543473907	-0.00678	0.00109	0.92178	-0.38764	0.00000	0.00000	0.00000	-0.10355	0.08080	9.94013
 1620115699	  644473907	-0.00879	-0.00013	0.92177	-0.38762	0.00000	0.00000	0.00000	-0.12031	0.05447	9.93534
 1620115699	  991852071	-0.00834	0.00016	0.92177	-0.38763	0.00000	0.00000	0.00000	-0.10834	0.07721	9.95090
 1620115700	  154852071	-0.00214	-0.00294	0.92181	-0.38762	0.00000	0.00000	0.00000	-0.11672	0.04489	9.92337
 1620115700	  181852071	-0.00784	0.00196	0.92177	-0.38763	0.00000	0.00000	0.00000	-0.11612	0.08859	9.94432
 1620115700	  505852071	-0.00628	0.00054	0.92200	-0.38713	0.00000	0.00000	0.00000	-0.11732	0.06584	9.92217
 1620115700	  558852071	-0.00625	-0.00060	0.92204	-0.38703	0.00000	0.00000	-0.00426	-0.11732	0.07721	9.96586
 1620115700	  669852071	-0.00673	0.00100	0.92216	-0.38675	0.00000	0.00000	-0.00532	-0.12270	0.06584	9.92576
 1620115700	  990852071	-0.00703	0.00113	0.92247	-0.38600	0.00000	0.00000	-0.00532	-0.10714	0.08021	9.94671
 1620115701	   58852071	-0.00653	0.00089	0.92253	-0.38585	0.00000	0.00000	-0.00532	-0.11133	0.07123	9.93713
 1620115701	  202852071	-0.00185	-0.00788	0.92269	-0.38544	0.00000	0.00000	-0.00639	-0.10235	0.07781	9.93893
 1620115701	  431852071	-0.00705	0.00209	0.92289	-0.38497	0.00000	0.00000	-0.00532	-0.12031	0.08499	9.91918
 1620115701	  444852071	-0.00705	0.00092	0.92292	-0.38492	0.00000	0.00000	-0.00532	-0.12270	0.07003	9.91259
 1620115701	  571852071	-0.00732	0.00129	0.92304	-0.38462	0.00000	0.00000	-0.00532	-0.10175	0.07003	9.93594
 1620115701	  651852071	-0.00643	0.00084	0.92313	-0.38442	0.00000	0.00000	-0.00532	-0.11791	0.09337	9.95150
 1620115701	  962852071	-0.00629	0.00085	0.92336	-0.38388	0.00000	0.00000	-0.00426	-0.11013	0.06883	9.94851
 1620115702	    9852071	-0.01011	0.00078	0.92337	-0.38377	0.00000	0.00000	-0.00426	-0.11971	0.08799	9.93474
 1620115702	  167852071	-0.00727	-0.00097	0.92345	-0.38363	0.00000	0.00000	-0.00426	-0.12809	0.07542	9.94491
 1620115702	  174852071	-0.00624	0.00773	0.92349	-0.38349	0.00000	0.00000	0.00000	-0.10355	0.08859	9.95270
 1620115702	  491387975	-0.00413	0.00037	0.92355	-0.38344	0.00000	0.00000	0.00000	-0.12091	0.07961	9.93115
 1620115702	  563387975	-0.00533	-0.00063	0.92355	-0.38343	0.00000	0.00000	0.00000	-0.12749	0.07542	9.93055
 1620115702	  649387975	-0.00542	0.00248	0.92354	-0.38345	0.00000	0.00000	0.00000	-0.12510	0.08380	9.93773
 1620115703	    8387975	-0.00301	0.00246	0.92354	-0.38346	0.00000	0.00000	0.00000	-0.10714	0.08499	9.93773
 1620115703	   46387975	-0.00599	0.00232	0.92353	-0.38345	0.00000	0.00000	0.00000	-0.09756	0.08080	9.94970
 1620115703	  177387975	-0.00804	-0.00021	0.92353	-0.38343	0.00000	0.00000	0.00000	-0.11073	0.07841	9.95270
 1620115703	  438387975	-0.00703	0.00251	0.92353	-0.38345	0.00000	0.00000	0.00426	-0.12929	0.06584	9.96527
 1620115703	  551387975	-0.00982	0.00078	0.92348	-0.38351	0.00000	0.00000	0.00426	-0.12629	0.08918	9.91678
 1620115703	  652387975	-0.00824	0.00121	0.92343	-0.38366	0.00000	0.00000	0.00532	-0.12270	0.08260	9.94372
 1620115703	  928387975	-0.00885	0.00317	0.92320	-0.38419	0.00000	0.00000	0.00532	-0.12091	0.08859	9.94551
 1620115703	  961387975	-0.00675	0.00103	0.92320	-0.38425	0.00000	0.00000	0.00426	-0.11672	0.06883	9.96467
 1620115704	   62387975	-0.00904	0.00388	0.92308	-0.38448	0.00000	0.00000	0.00426	-0.12510	0.09936	9.95449
 1620115704	  181387975	-0.00264	-0.00526	0.92298	-0.38479	0.00000	0.00000	0.00639	-0.11552	0.08200	9.94851
 1620115704	  471387975	-0.00471	0.00311	0.92263	-0.38562	0.00000	0.00000	0.00639	-0.10654	0.08140	9.92397
 1620115704	  539387975	-0.00814	0.00007	0.92252	-0.38584	0.00000	0.00000	0.00639	-0.11971	0.06345	9.92277
 1620115704	  643387975	-0.00625	0.00106	0.92240	-0.38617	0.00000	0.00000	0.00639	-0.10654	0.07542	9.89105
 1620115704	  940467018	-0.00721	0.00163	0.92203	-0.38705	0.00000	0.00000	0.00745	-0.11732	0.08978	9.95329
 1620115704	  963467018	-0.00680	0.00168	0.92200	-0.38713	0.00000	0.00000	0.00745	-0.11193	0.08380	9.96946
 1620115705	   77467018	-0.00500	0.00134	0.92186	-0.38748	0.00000	0.00000	0.00639	-0.11013	0.07183	9.92277
 1620115705	  217467018	-0.01388	0.00997	0.92156	-0.38784	0.00000	0.00000	0.00532	-0.11851	0.05926	9.91678
 1620115705	  528467018	-0.00679	0.00154	0.92139	-0.38857	0.00000	0.00000	0.00426	-0.11552	0.07721	9.95329
 1620115705	  577467018	-0.00966	-0.00081	0.92132	-0.38867	0.00000	0.00000	0.00532	-0.14066	0.07063	9.93115
 1620115705	  652467018	-0.00785	-0.00064	0.92128	-0.38880	0.00000	0.00000	0.00426	-0.11372	0.07602	9.97005
 1620115705	  918467018	-0.00653	0.00040	0.92117	-0.38909	0.00000	0.00000	0.00426	-0.11193	0.06345	9.93534
 1620115705	  951467018	-0.00760	0.00063	0.92116	-0.38909	0.00000	0.00000	0.00000	-0.12989	0.07242	9.93474
 1620115706	   73467018	-0.00596	0.00277	0.92116	-0.38911	0.00000	0.00000	0.00000	-0.10594	0.07542	9.93833
 1620115706	  205467018	-0.00915	0.00265	0.92114	-0.38910	0.00000	0.00000	0.00000	-0.10714	0.07242	9.92995
 1620115706	  438467018	-0.00577	-0.00153	0.92118	-0.38908	0.00000	0.00000	0.00000	-0.12330	0.05626	9.92397
 1620115706	  463467018	-0.00735	0.00049	0.92116	-0.38909	0.00000	0.00000	0.00000	-0.14066	0.07542	9.96766
 1620115706	  555467018	-0.00753	0.00114	0.92116	-0.38910	0.00000	0.00000	0.00000	-0.12809	0.08499	9.92277
 1620115706	  671467018	-0.00569	0.00220	0.92117	-0.38911	0.00000	0.00000	0.00000	-0.14545	0.08140	9.93713
 1620115706	  984467018	-0.00626	0.00160	0.92117	-0.38910	0.00000	0.00000	0.00000	-0.11791	0.08200	9.96527
 1620115707	   53467018	-0.00521	0.00175	0.92117	-0.38911	0.00000	0.00000	0.00000	-0.12570	0.08380	9.92636
 1620115707	  240467018	-0.00737	0.00229	0.92116	-0.38910	0.00000	0.00000	0.00000	-0.12270	0.05746	9.91319
 1620115707	  474206106	-0.00494	0.00242	0.92121	-0.38903	0.00000	0.00000	0.00000	-0.11253	0.07721	9.94851
 1620115707	  579206106	-0.00749	0.00081	0.92129	-0.38880	0.00000	0.00000	-0.00426	-0.12091	0.08200	9.93414
 1620115707	  651206106	-0.00754	0.00084	0.92134	-0.38867	0.00000	0.00000	-0.00426	-0.13228	0.07003	9.92217
 1620115708	   75206106	-0.00785	-0.00105	0.92176	-0.38767	0.00000	0.00000	-0.00532	-0.12330	0.08260	9.91918
 1620115708	  215206106	-0.00935	0.00028	0.92180	-0.38753	0.00000	0.00000	-0.00532	-0.13647	0.07422	9.93414
 1620115708	  626206106	-0.00634	0.00126	0.92233	-0.38633	0.00000	0.00000	-0.00426	-0.11013	0.07901	9.90661
 1620115708	  677206106	-0.00725	0.00142	0.92238	-0.38621	0.00000	0.00000	-0.00426	-0.12091	0.07542	9.92875
 1620115709	  236206106	-0.00819	0.00962	0.92265	-0.38541	0.00000	0.00000	0.00000	-0.10295	0.08260	9.93055
 1620115709	  641206106	-0.00757	0.00258	0.92272	-0.38537	0.00000	0.00000	0.00000	-0.13707	0.07901	9.93354
 1620115709	  694206106	-0.00898	-0.00169	0.92273	-0.38534	0.00000	0.00000	0.00000	-0.13048	0.07302	9.92337
 1620115709	  924009037	-0.01830	-0.00085	0.92238	-0.38584	0.08620	0.92373	0.18091	-0.43215	-1.24678	0.48842
 1620115709	  967009037	-0.02511	-0.00390	0.92272	-0.38463	-0.02661	-0.60021	-0.16282	1.40240	1.29826	-2.19010
 1620115710	   73009037	-0.01025	0.02207	0.92328	-0.38335	0.25860	-0.62894	-0.26499	-0.31484	-2.03268	19.61270
 1620115710	  237009037	-0.01004	0.02724	0.92395	-0.38140	0.04044	0.14260	-0.02661	-1.26474	-1.62506	12.26130
 1620115710	  568009037	-0.01526	0.02181	0.92326	-0.38324	0.00000	-0.13835	0.04150	-1.12228	0.56443	12.59949
 1620115710	  583009037	-0.01325	0.02120	0.92313	-0.38366	0.03938	-0.19262	0.07130	0.08200	-0.48483	10.24120
 1620115710	  668009037	-0.02148	0.01616	0.92348	-0.38269	0.02341	-0.03086	0.01277	-0.64404	0.10834	10.04188
 1620115711	   58009037	-0.01997	0.01006	0.92378	-0.38225	-0.00426	0.00000	0.00639	-0.32980	0.36512	10.20768
 1620115711	   81009037	-0.02069	0.01190	0.92378	-0.38218	-0.01064	0.00426	-0.01277	-0.18256	0.49380	9.83777
 1620115711	  249009037	-0.01763	0.00939	0.92388	-0.38216	0.00000	-0.00426	0.00000	-0.19273	0.10175	9.92217
 1620115711	  475009037	-0.01905	0.00854	0.92394	-0.38197	0.00000	0.00000	0.00000	-0.27473	0.23104	10.02991
 1620115711	  567009037	-0.01574	0.00588	0.92402	-0.38197	0.00000	0.00000	0.00000	-0.27114	0.27054	10.01614
 1620115711	  649009037	-0.01872	0.00780	0.92396	-0.38195	0.00000	0.00000	0.00000	-0.28671	0.26276	9.93773
 1620115711	  936009037	-0.01805	0.00802	0.92396	-0.38196	0.00000	0.00000	0.00000	-0.28192	0.30765	9.93175
 1620115711	  981009037	-0.02229	0.00798	0.92390	-0.38190	0.00000	0.00000	0.00000	-0.28311	0.29509	9.95030
 1620115712	   71009037	-0.01610	0.00530	0.92402	-0.38195	0.00000	0.00000	0.00000	-0.26456	0.21129	9.94551
 1620115712	  229009037	-0.01788	0.01048	0.92392	-0.38200	0.00000	0.00000	0.00000	-0.27054	0.29868	9.90242
 1620115712	  524900939	-0.01692	0.00723	0.92398	-0.38198	0.00000	0.00000	0.00000	-0.25738	0.22386	9.93474
 1620115712	  572900939	-0.01601	0.00488	0.92402	-0.38196	0.00000	0.00000	0.00000	-0.27593	0.22446	9.91978
 1620115712	  656900939	-0.02013	0.00866	0.92391	-0.38196	0.00000	0.00000	0.00000	-0.29389	0.29389	9.94911
 1620115713	   83900939	-0.01597	0.00925	0.92397	-0.38202	0.00000	0.00000	0.00000	-0.25678	0.24900	9.92935
 1620115713	  269900939	-0.00727	-0.00370	0.92415	-0.38193	0.00000	0.00000	0.00000	-0.23822	0.21907	9.91738
 1620115713	  584900939	-0.01938	0.00551	0.92404	-0.38174	0.00000	-0.01809	0.00000	-0.06285	0.15203	9.70669
 1620115713	  596900939	-0.01787	0.00612	0.92406	-0.38177	0.00000	0.00851	0.00000	-0.21847	0.27174	10.19870
 1620115713	  639900939	-0.01713	0.00907	0.92403	-0.38181	0.00000	0.00532	-0.00426	-0.25678	0.30526	9.85573
 1620115713	  920900939	-0.01644	0.00706	0.92413	-0.38165	0.00000	0.00000	0.00000	-0.22805	0.27533	10.00118
 1620115713	  972900939	-0.01905	0.00730	0.92409	-0.38162	0.00000	0.00000	0.00000	-0.28730	0.28012	9.88207
 1620115714	   51900939	-0.01732	0.00855	0.92410	-0.38164	0.00000	0.00000	0.00000	-0.26396	0.27653	9.93713
 1620115714	  238900939	-0.01718	0.01528	0.92408	-0.38150	0.00000	0.00000	-0.00426	-0.25438	0.27773	9.89643
 1620115714	  594900939	-0.02062	0.00559	0.92419	-0.38132	0.00000	0.00000	0.00000	-0.25618	0.27054	9.89464
 1620115714	  657900939	-0.01704	0.00834	0.92421	-0.38141	0.00000	0.00000	0.00000	-0.25079	0.28431	9.92875
 1620115714	  943470045	-0.01824	0.00628	0.92422	-0.38136	0.00000	0.00000	0.00000	-0.28671	0.25438	9.94671
 1620115715	   39470045	-0.01746	0.00734	0.92422	-0.38139	0.00000	0.00000	0.00000	-0.27593	0.27234	9.93354
 1620115715	  239470045	-0.01416	0.01736	0.92407	-0.38155	0.00000	0.00000	0.00000	-0.27473	0.28192	9.95629
 1620115715	  886470045	-0.01766	0.00954	0.92418	-0.38142	0.00000	0.00000	0.00000	-0.26217	0.26396	9.94611
 1620115716	  651470045	-0.01664	0.00700	0.92423	-0.38141	0.00000	0.00000	0.00000	-0.27473	0.25199	9.94611
 1620115716	  663470045	-0.01744	0.00707	0.92422	-0.38140	0.00000	0.00000	0.00000	-0.26815	0.26157	9.92277
 1620115717	  900172012	-0.01745	0.00643	0.92422	-0.38140	0.00000	0.00000	0.00000	-0.26935	0.24600	9.92696
 1620115717	  907172012	-0.01769	0.00687	0.92421	-0.38141	0.00000	0.00000	0.00000	-0.25618	0.27713	9.91379
 1620115717	  951172012	-0.01532	0.00812	0.92422	-0.38145	0.00000	0.00000	0.00000	-0.24960	0.27773	9.96167
 1620115718	   58172012	-0.01766	0.00793	0.92419	-0.38142	0.00000	0.00000	0.00000	-0.26336	0.28252	9.93893
 1620115718	  232172012	-0.02331	0.01519	0.92398	-0.38142	0.00000	0.00000	0.00000	-0.26276	0.26935	9.94312
 1620115718	  280172012	-0.02055	0.01116	0.92410	-0.38142	0.00000	0.00000	0.00000	-0.26276	0.26755	9.90481
 1620115718	  368172012	-0.01935	0.00946	0.92415	-0.38141	0.00000	0.00000	0.00000	-0.26935	0.29209	9.93414
 1620115718	  470172012	-0.01781	0.00817	0.92419	-0.38142	0.00000	0.00000	0.00000	-0.26576	0.27892	9.94851
 1620115718	  556172012	-0.01598	0.00851	0.92421	-0.38144	0.00000	0.00000	0.00000	-0.28611	0.27174	9.93534
 1620115718	  644172012	-0.01792	0.00743	0.92420	-0.38141	0.00000	0.00000	0.00000	-0.27593	0.27114	9.93953
 1620115718	  755172012	-0.01811	0.00479	0.92423	-0.38137	0.00000	0.00000	0.00000	-0.27593	0.26516	9.92277
 1620115718	  862172012	-0.01824	0.00699	0.92420	-0.38139	0.00000	0.00000	0.00000	-0.28371	0.25977	9.94731
 1620115718	  941172012	-0.01905	0.00793	0.92418	-0.38140	0.00000	0.00000	0.00000	-0.27653	0.27354	9.89703
 1620115719	   63172012	-0.01670	0.00639	0.92423	-0.38141	0.00000	0.00000	0.00000	-0.26336	0.26995	9.94611
 1620115719	  253172012	-0.01208	-0.00104	0.92435	-0.38135	0.00000	0.00000	0.00000	-0.28192	0.26097	9.89524
 1620115719	  278172012	-0.01337	0.00053	0.92433	-0.38136	0.00000	0.00000	0.00000	-0.26516	0.26695	9.89404
 1620115719	  362172012	-0.01669	0.00766	0.92421	-0.38142	0.00000	0.00000	0.00000	-0.25079	0.27773	9.92037
 1620115719	  440172012	-0.01755	0.00807	0.92420	-0.38142	0.00000	0.00000	0.00000	-0.26157	0.28431	9.96766
 1620115719	  564172012	-0.01490	0.00818	0.92423	-0.38145	0.00000	0.00000	0.00000	-0.26935	0.26396	9.90541
 1620115719	  601172012	-0.01721	0.00689	0.92422	-0.38140	0.00000	0.00000	0.00000	-0.26396	0.25857	9.95270
 1620115719	  765172012	-0.01749	0.00832	0.92420	-0.38142	0.00000	0.00000	0.00000	-0.26276	0.28012	9.97305
 1620115719	  884172012	-0.01924	0.00773	0.92418	-0.38139	0.00000	0.00000	0.00000	-0.27833	0.29030	9.94611
 1620115719	  956063957	-0.01616	0.00883	0.92420	-0.38145	0.00000	0.00000	0.00000	-0.23403	0.28371	9.95150
 1620115720	   48063957	-0.01797	0.00656	0.92421	-0.38139	0.00000	0.00000	0.00000	-0.28192	0.26516	9.94731
 1620115720	  226063957	-0.01704	0.00788	0.92421	-0.38142	0.00000	0.00000	0.00000	-0.27174	0.28970	9.92397
 1620115720	  265063957	-0.02096	0.00110	0.92422	-0.38127	0.00000	0.00000	0.00000	-0.27234	0.25319	9.94013
 1620115720	  336063957	-0.01699	0.00616	0.92423	-0.38140	0.00000	0.00000	0.00000	-0.26217	0.24241	9.94671
 1620115720	  404063957	-0.01707	0.00808	0.92420	-0.38142	0.00000	0.00000	0.00000	-0.26336	0.26336	9.93115
 1620115720	  546063957	-0.01653	0.00803	0.92421	-0.38143	0.00000	0.00000	0.00000	-0.26995	0.26336	9.92756
 1620115720	  645063957	-0.01705	0.00706	0.92422	-0.38141	0.00000	0.00000	0.00000	-0.25379	0.25199	9.91499
 1620115720	  739063957	-0.01693	0.00808	0.92420	-0.38143	0.00000	0.00000	0.00000	-0.25319	0.27653	9.94671
 1620115720	  843063957	-0.01727	0.00810	0.92420	-0.38142	0.00000	0.00000	0.00000	-0.28132	0.28850	9.91618
 1620115720	  950063957	-0.01774	0.00726	0.92420	-0.38140	0.00000	0.00000	0.00000	-0.27054	0.27234	9.93414
 1620115721	   52063957	-0.01608	0.00707	0.92423	-0.38142	0.00000	0.00000	0.00000	-0.25558	0.26276	9.92456
 1620115721	  209063957	-0.02018	0.00564	0.92419	-0.38135	0.00000	0.00000	0.00000	-0.29329	0.26456	9.92397
 1620115721	  253063957	-0.01506	0.00806	0.92423	-0.38144	0.00000	0.00000	0.00000	-0.24600	0.26635	9.96407
 1620115721	  354063957	-0.01760	0.00704	0.92421	-0.38140	0.00000	0.00000	0.00000	-0.26995	0.26276	9.94551
 1620115721	  436063957	-0.01645	0.00772	0.92422	-0.38142	0.00000	0.00000	0.00000	-0.24780	0.26516	9.90781
 1620115721	  546063957	-0.01957	0.00756	0.92418	-0.38137	0.00000	0.00000	0.00000	-0.28611	0.25977	9.96646
 1620115721	  650063957	-0.01855	0.00713	0.92420	-0.38138	0.00000	0.00000	0.00000	-0.28790	0.26815	9.90421
 1620115721	  748063957	-0.01926	0.00724	0.92419	-0.38138	0.00000	0.00000	0.00000	-0.29449	0.29329	9.88087
 1620115721	  842063957	-0.01856	0.00670	0.92420	-0.38139	0.00000	-0.00426	0.00000	-0.30706	0.26276	9.80904
 1620115721	  945063957	-0.01669	0.00497	0.92427	-0.38134	0.00000	0.00000	0.00000	-0.25857	0.27054	9.79887
 1620115722	   35063957	-0.01919	0.00943	0.92416	-0.38139	0.00000	0.00000	0.00000	-0.28012	0.31843	9.83299
 1620115722	  231063957	-0.02152	0.01558	0.92419	-0.38100	0.00000	0.00000	-0.00745	-0.27354	0.27114	9.88686
 1620115722	  257063957	-0.02012	0.01329	0.92428	-0.38094	0.00000	0.00000	0.00000	-0.24660	0.26276	9.95150
 1620115722	  339063957	-0.01515	0.00747	0.92442	-0.38098	0.00000	0.00426	0.00000	-0.20889	0.20111	9.98203
 1620115722	  460418052	-0.01912	0.00962	0.92436	-0.38092	0.00000	0.00000	-0.00426	-0.26755	0.32202	9.92696
