Sec	Nsec	OrientX	OrientY	OrientZ	OrientW	AngVelX	AngVelY	AngVelZ	AccX	AccY	AccZ
 1620117999	   38310091	-0.00641	-0.04782	0.66140	0.74848	-0.02341	0.00000	-0.00532	0.60094	-0.68714	9.86351
 1620117999	  142310091	-0.00382	-0.04519	0.66114	0.74888	0.00000	-0.00532	-0.00639	0.62429	-0.64883	9.86950
 1620117999	  248310091	-0.00073	-0.04370	0.66087	0.74922	0.00000	-0.00426	-0.00532	0.64883	-0.63147	9.88506
 1620117999	  353310091	-0.00221	-0.04473	0.66067	0.74933	0.00639	0.00000	-0.00639	0.61830	-0.64584	9.85872
 1620117999	  492310091	0.00844	-0.04755	0.66001	0.74969	0.00958	-0.00426	-0.00426	0.64643	-0.63087	9.89943
 1620117999	  539310091	0.00390	-0.04668	0.66017	0.74965	0.00745	-0.00426	0.00000	0.65362	-0.63805	9.83837
 1620117999	  659310091	-0.00767	-0.04709	0.66050	0.74930	0.00000	0.00000	0.00000	0.64584	-0.65661	9.88566
 1620117999	  742310091	-0.00217	-0.04550	0.66036	0.74956	-0.01596	0.00639	0.00000	0.66200	-0.62668	9.90840
 1620117999	  832310091	-0.00308	-0.04581	0.66030	0.74959	-0.02873	0.01277	0.00000	0.64165	-0.64643	9.90242
 1620117999	  952310091	-0.00877	-0.04522	0.66039	0.74950	-0.01277	0.00745	0.00000	0.58359	-0.69911	9.85753
 1620118000	   44310091	-0.00589	-0.04596	0.66030	0.74957	0.02448	-0.00426	0.00000	0.60873	-0.67457	9.89763
 1620118000	  141310091	-0.00220	-0.04531	0.66028	0.74964	0.02873	-0.00745	0.00000	0.64464	-0.62908	9.86950
 1620118000	  267310091	-0.00270	-0.04616	0.66034	0.74954	0.01064	0.00000	0.00000	0.62608	-0.63686	9.90002
 1620118000	  341310091	-0.00276	-0.04518	0.66039	0.74955	0.00851	0.00000	0.00000	0.63267	-0.64045	9.88147
 1620118000	  510607099	-0.00262	-0.04723	0.66033	0.74948	0.00745	-0.00426	0.00000	0.65721	-0.65601	9.84735
 1620118000	  554607099	-0.00363	-0.04017	0.66058	0.74966	-0.01596	0.00000	0.00000	0.63386	-0.64524	9.85693
 1620118000	  649607099	-0.00354	-0.04639	0.66035	0.74951	-0.01064	0.00000	0.00000	0.64404	-0.66439	9.86830
 1620118000	  766607099	-0.00173	-0.04423	0.66034	0.74965	-0.01064	0.00000	0.00000	0.65481	-0.63207	9.91199
 1620118000	  871607099	-0.00338	-0.04548	0.66032	0.74959	-0.01171	0.00000	0.00000	0.64524	-0.65422	9.90242
 1620118000	  972607099	-0.00783	-0.04375	0.66054	0.74946	0.01383	-0.00639	0.00000	0.60693	-0.68953	9.87369
 1620118001	  300607099	-0.00299	-0.04768	0.66040	0.74939	0.00000	0.00000	0.00000	0.63925	-0.65781	9.85932
 1620118001	  310607099	-0.00339	-0.04674	0.66044	0.74941	0.00000	0.00000	0.00000	0.62130	-0.65242	9.88506
 1620118001	  395607099	-0.00119	-0.04477	0.66058	0.74942	-0.00958	0.00426	0.00532	0.64943	-0.60992	9.85573
 1620118001	  538607099	-0.01137	-0.04791	0.66099	0.74878	-0.02235	0.00639	0.00532	0.61112	-0.66559	9.86830
 1620118001	  617607099	-0.00452	-0.04541	0.66097	0.74901	-0.00639	0.00000	0.00426	0.61950	-0.66798	9.84556
 1620118001	  695607099	-0.00207	-0.04511	0.66103	0.74900	-0.00426	0.00000	0.00639	0.64284	-0.62070	9.89643
 1620118001	  823607099	-0.00565	-0.04648	0.66133	0.74863	0.00000	0.00000	0.00426	0.61770	-0.69192	9.88027
 1620118001	  861607099	-0.00602	-0.04660	0.66142	0.74854	0.01703	-0.00851	0.00532	0.60513	-0.69552	9.84316
 1620118005	   31773899	-0.00492	-0.04661	0.66332	0.74686	0.01171	-0.00639	-0.00426	0.63087	-0.67157	9.89763
 1620118005	  554300971	-0.01322	-0.04899	0.66246	0.74737	-0.00639	0.00000	-0.00532	0.63805	-0.64584	9.84376
 1620118005	  619300971	-0.00713	-0.04705	0.66223	0.74778	0.00000	0.00000	-0.00532	0.63207	-0.65302	9.87309
 1620118005	  704300971	-0.00240	-0.04512	0.66199	0.74814	0.00958	0.00000	-0.00639	0.63626	-0.64284	9.88865
 1620118005	  784300971	-0.00111	-0.04551	0.66174	0.74834	0.00000	0.00000	-0.00532	0.64943	-0.63207	9.85813
 1620118005	  887300971	-0.00261	-0.04587	0.66155	0.74849	-0.00639	0.00532	-0.00532	0.65182	-0.64404	9.89643
 1620118006	   20300971	-0.00412	-0.04347	0.66137	0.74879	0.00000	0.00000	-0.00639	0.63566	-0.64703	9.86531
 1620118006	   92300971	-0.00153	-0.04739	0.66096	0.74892	-0.00426	0.00426	-0.00639	0.63506	-0.62848	9.84077
 1620118006	  877300971	-0.00392	-0.04644	0.65935	0.75038	0.00000	0.00000	-0.00532	0.64584	-0.65661	9.87129
 1620118007	   40300971	-0.00154	-0.04728	0.65900	0.75065	0.00532	0.00000	-0.00426	0.64763	-0.62848	9.85753
 1620118007	   73300971	-0.00197	-0.04459	0.65905	0.75077	0.00426	0.00000	-0.00426	0.63566	-0.60873	9.89763
 1620118007	  191300971	-0.00278	-0.04785	0.65880	0.75079	0.00000	0.00000	-0.00426	0.64284	-0.64883	9.87788
 1620118007	  288300971	-0.00231	-0.04670	0.65882	0.75084	0.00426	0.00000	0.00000	0.64464	-0.62189	9.87728
 1620118007	  379300971	-0.00243	-0.04510	0.65888	0.75089	0.00000	0.00000	0.00000	0.64284	-0.62728	9.89883
 1620118007	  530300971	-0.00240	-0.03607	0.65915	0.75114	0.00000	0.00000	0.00000	0.61351	-0.64763	9.86112
 1620118007	  588300971	-0.00263	-0.04200	0.65899	0.75097	0.00000	0.00000	0.00000	0.64404	-0.63027	9.88686
 1620118007	  685300971	-0.00467	-0.04769	0.65887	0.75072	0.00000	0.00000	0.00000	0.64464	-0.63925	9.86591
 1620118007	  780300971	-0.00282	-0.04609	0.65887	0.75083	0.00000	0.00000	0.00000	0.62489	-0.64643	9.86650
 1620118007	  875300971	-0.00211	-0.04486	0.65889	0.75089	0.00000	0.00000	0.00000	0.63865	-0.60873	9.87967
 1620118007	  966135984	0.00035	-0.04421	0.65883	0.75099	0.00000	0.00000	0.00000	0.63865	-0.61052	9.85513
 1620118008	   60135984	-0.00507	-0.04473	0.65898	0.75081	0.00000	0.00000	0.00000	0.61890	-0.64823	9.88147
 1620118008	  166135984	-0.00253	-0.04487	0.65890	0.75089	0.00000	0.00000	0.00000	0.62728	-0.60753	9.87608
 1620118008	  272135984	-0.00220	-0.04719	0.65881	0.75082	0.00000	0.00000	0.00000	0.65062	-0.64045	9.86890
 1620118008	  357135984	-0.00375	-0.04402	0.65895	0.75088	-0.00851	0.00000	0.00000	0.62968	-0.63267	9.87189
 1620118008	  499135984	-0.00209	-0.04720	0.65879	0.75084	-0.00639	0.00000	0.00000	0.62608	-0.64703	9.84615
 1620118008	  553135984	-0.00524	-0.04422	0.65898	0.75084	0.00000	0.00000	0.00000	0.62249	-0.64105	9.88686
 1620118008	  673135984	-0.00451	-0.04695	0.65887	0.75077	0.00000	0.00000	0.00000	0.64165	-0.63985	9.85154
 1620118008	  749135984	-0.00490	-0.04694	0.65889	0.75075	0.00000	0.00000	0.00426	0.63147	-0.63446	9.87429
 1620118008	  853135984	-0.00292	-0.04457	0.65896	0.75085	0.00000	0.00000	0.00000	0.62010	-0.62189	9.87788
 1620118008	  960135984	-0.00470	-0.04703	0.65906	0.75060	0.00000	0.00000	0.00426	0.63446	-0.65362	9.87908
 1620118009	   46135984	-0.00380	-0.04477	0.65923	0.75059	0.00000	0.00000	0.00426	0.64404	-0.64284	9.88207
 1620118009	  175135984	-0.00078	-0.04678	0.65922	0.75049	0.00000	0.00000	0.00532	0.66559	-0.62908	9.86471
 1620118009	  252135984	-0.00087	-0.04578	0.65940	0.75039	0.00000	0.00000	0.00532	0.65302	-0.63446	9.88626
 1620118009	  350135984	-0.00344	-0.04535	0.65964	0.75020	0.00000	0.00000	0.00426	0.62369	-0.64165	9.87189
 1620118009	  551135984	0.00410	-0.05341	0.65946	0.74983	0.00000	-0.00426	0.00426	0.63506	-0.65781	9.89404
 1620118009	  584135984	0.00199	-0.05107	0.65968	0.74980	0.00000	-0.00532	0.00426	0.64703	-0.64584	9.87848
 1620118009	  655135984	-0.00251	-0.04649	0.66011	0.74972	0.00000	-0.00532	0.00532	0.62549	-0.64763	9.89583
 1620118009	  722135984	-0.00226	-0.04562	0.66028	0.74963	0.00000	-0.00426	0.00426	0.64404	-0.63207	9.87668
 1620118009	  863135984	0.00205	-0.04525	0.66037	0.74957	0.00000	0.00000	0.00000	0.63805	-0.64165	9.89703
 1620118009	  955135984	-0.00297	-0.04492	0.66072	0.74928	-0.00426	0.00000	0.00532	0.62848	-0.63027	9.88745
 1620118010	   45135984	-0.00339	-0.04545	0.66088	0.74910	0.00000	0.00000	0.00532	0.61591	-0.63805	9.88027
 1620118010	  136135984	-0.00304	-0.04607	0.66101	0.74895	0.00000	0.00000	0.00532	0.63506	-0.64224	9.86531
 1620118010	  257135984	-0.00198	-0.04751	0.66119	0.74870	0.00000	0.00000	0.00532	0.63087	-0.64943	9.87429
 1620118011	  630264926	-0.00292	-0.04254	0.66159	0.74865	0.00000	0.00000	0.00000	0.64643	-0.63865	9.86890
 1620118011	  755264926	-0.02423	-0.16025	0.65386	0.73905	0.00000	0.00000	0.00000	0.63566	-0.65481	9.89105
 1620118011	  762264926	-0.02193	-0.14802	0.65510	0.74057	0.00000	0.00000	0.00000	0.63925	-0.65422	9.87908
 1620118011	  795264926	-0.02131	-0.14490	0.65541	0.74093	0.00532	0.00000	0.00000	0.62369	-0.65721	9.86172
 1620118011	  946264926	-0.01844	-0.13084	0.65672	0.74246	0.00426	0.00000	0.00000	0.63207	-0.62968	9.88626
 1620118012	   76264926	-0.01620	-0.11855	0.65772	0.74369	0.00000	0.00000	0.00000	0.63506	-0.64703	9.88626
 1620118012	  170264926	-0.01450	-0.10912	0.65842	0.74455	0.00000	0.00000	0.00000	0.62549	-0.63925	9.87429
 1620118012	  248264926	-0.01323	-0.10227	0.65885	0.74516	0.00000	0.00000	-0.00426	0.66080	-0.63027	9.86411
 1620118012	  353264926	-0.01146	-0.09208	0.65945	0.74599	0.00000	0.00000	0.00000	0.63985	-0.64823	9.88087
 1620118012	  431264926	-0.01013	-0.08454	0.65981	0.74658	0.00000	0.00000	-0.00426	0.63506	-0.64584	9.88626
 1620118012	  535264926	-0.00820	-0.07395	0.66015	0.74743	0.00000	0.00000	-0.00532	0.63207	-0.63865	9.87788
 1620118012	  619264926	-0.00673	-0.06631	0.66035	0.74799	0.00000	0.00000	-0.00532	0.62728	-0.63027	9.89105
 1620118012	  796264926	-0.00290	-0.04936	0.66049	0.74919	0.00000	0.00000	-0.00639	0.64524	-0.62249	9.87788
 1620118012	  853264926	-0.00254	-0.04536	0.66049	0.74946	-0.00532	0.00000	-0.00426	0.63925	-0.62429	9.88805
 1620118012	  950264926	-0.00390	-0.04606	0.66031	0.74956	-0.00532	0.00000	-0.00532	0.63805	-0.63327	9.88985
 1620118013	   60041986	-0.00372	-0.04585	0.66011	0.74975	0.00000	0.00000	-0.00532	0.62189	-0.65541	9.88925
 1620118013	  164041986	-0.00542	-0.04489	0.65997	0.74992	0.00000	0.00000	-0.00639	0.62309	-0.64883	9.85932
 1620118013	  254041986	-0.00316	-0.04388	0.65976	0.75019	0.00000	0.00000	-0.00532	0.60873	-0.63566	9.88087
 1620118013	  626041986	-0.00280	-0.04499	0.65891	0.75086	0.00000	0.00000	-0.00426	0.63327	-0.62968	9.87129
 1620118013	  887041986	-0.00527	-0.04534	0.65893	0.75082	0.00000	0.00000	-0.00532	0.62429	-0.64404	9.87908
 1620118013	  909041986	0.01474	-0.03626	0.65796	0.75203	0.00000	0.00000	-0.00532	0.63566	-0.65242	9.87070
 1620118013	  974041986	0.00887	-0.03913	0.65798	0.75196	0.00000	0.00000	-0.00532	0.63267	-0.64105	9.85513
 1620118014	   68041986	0.00064	-0.04346	0.65796	0.75179	0.00000	-0.00426	-0.00532	0.65182	-0.63327	9.89823
 1620118014	  155041986	-0.00254	-0.04543	0.65781	0.75180	0.00000	0.00000	-0.00639	0.64823	-0.63207	9.86591
 1620118014	  223041986	-0.00287	-0.04532	0.65769	0.75191	0.00000	0.00000	-0.00532	0.64224	-0.61411	9.85573
 1620118014	  370041986	-0.00346	-0.04550	0.65744	0.75212	0.00000	0.00000	-0.00426	0.63327	-0.64464	9.87429
 1620118014	  454041986	-0.00392	-0.04455	0.65733	0.75227	0.00000	0.00000	-0.00532	0.64404	-0.63446	9.87668
 1620118014	  557041986	-0.00349	-0.04551	0.65709	0.75242	0.00000	0.00000	-0.00532	0.61950	-0.64823	9.85513
 1620118014	  766041986	-0.00551	-0.04555	0.65700	0.75249	0.00000	0.00000	-0.00426	0.62189	-0.65122	9.85094
 1620118014	  772041986	0.00453	-0.04783	0.65641	0.75287	0.00000	0.00000	-0.00426	0.64045	-0.65122	9.86591
 1620118014	  871041986	-0.00484	-0.04541	0.65679	0.75269	0.00000	0.00000	0.00000	0.63087	-0.64584	9.87788
 1620118014	  963041986	-0.00302	-0.04545	0.65672	0.75275	0.00000	0.00000	0.00000	0.64643	-0.65003	9.84975
 1620118015	   89041986	-0.00649	-0.04577	0.65681	0.75264	-0.00426	0.00426	0.00000	0.62788	-0.63805	9.85872
 1620118015	  156041986	-0.00247	-0.04724	0.65662	0.75273	-0.00532	0.00000	0.00000	0.62788	-0.63506	9.87070
 1620118015	  267041986	-0.00307	-0.04541	0.65669	0.75278	-0.00426	0.00000	0.00000	0.63686	-0.63267	9.86830
 1620118015	  373041986	-0.00461	-0.04210	0.65683	0.75284	0.00000	0.00000	0.00000	0.61591	-0.63686	9.85932
 1620118015	  446904998	-0.00318	-0.04600	0.65667	0.75277	0.00000	0.00000	0.00000	0.64045	-0.65362	9.88566
 1620118015	  536904998	-0.00329	-0.04550	0.65669	0.75278	0.00000	0.00000	0.00000	0.63147	-0.63985	9.88566
 1620118015	  758904998	-0.00199	-0.04287	0.65673	0.75289	0.00000	0.00000	0.00000	0.63746	-0.62070	9.87608
 1620118015	  765904998	-0.00736	-0.05305	0.65655	0.75237	0.00000	0.00000	0.00000	0.63626	-0.64464	9.88506
 1620118015	  798904998	-0.00529	-0.04976	0.65661	0.75256	0.00000	0.00000	0.00000	0.65122	-0.64643	9.89524
 1620118015	  897904998	-0.00180	-0.04483	0.65666	0.75285	0.00000	0.00000	0.00000	0.65062	-0.64643	9.83418
 1620118016	   59904998	-0.00369	-0.04578	0.65670	0.75275	0.00000	0.00000	0.00000	0.63267	-0.64943	9.84795
 1620118016	  147904998	-0.00419	-0.04484	0.65674	0.75276	0.00000	0.00000	0.00000	0.60753	-0.63446	9.87249
 1620118016	  230904998	-0.00352	-0.04546	0.65671	0.75276	0.00532	0.00000	0.00000	0.63626	-0.63746	9.88626
 1620118016	  345904998	-0.00413	-0.04603	0.65672	0.75271	0.00426	0.00000	0.00000	0.63267	-0.63267	9.87668
 1620118016	  438904998	-0.00264	-0.04440	0.65673	0.75281	0.00000	0.00000	0.00000	0.63386	-0.62788	9.87010
 1620118016	  565904998	-0.00517	-0.04480	0.65680	0.75271	0.00000	0.00000	0.00000	0.63626	-0.63925	9.86650
 1620118016	  641904998	-0.00108	-0.04552	0.65667	0.75280	0.00000	0.00426	0.00000	0.66619	-0.62489	9.86471
 1620118016	  773904998	-0.01177	-0.04025	0.65735	0.75241	-0.00639	0.00000	0.00532	0.57760	-0.65362	9.88506
 1620118016	  844904998	-0.00718	-0.04507	0.65720	0.75233	0.00745	-0.00426	0.00426	0.65721	-0.68893	9.85932
 1620118016	  939904998	-0.00254	-0.04436	0.65728	0.75233	0.00639	0.00000	0.00532	0.61351	-0.62369	9.85154
 1620118017	   42904998	-0.00360	-0.04545	0.65743	0.75213	-0.01064	0.00000	0.00000	0.63027	-0.64284	9.85154
 1620118017	  140904998	-0.00466	-0.04811	0.65756	0.75185	0.01383	-0.00745	0.00639	0.63805	-0.67098	9.84496
 1620118017	  235904998	-0.00287	-0.04363	0.65785	0.75187	0.00000	-0.00745	0.00426	0.60992	-0.61591	9.89524
 1620118017	  359904998	-0.00222	-0.04814	0.65779	0.75165	0.00426	-0.00851	0.00000	0.65302	-0.68175	9.87848
 1620118017	  407904998	-0.00096	-0.04612	0.65782	0.75176	0.00000	0.00000	0.00000	0.66559	-0.60154	9.87728
 1620118017	  532904998	-0.00794	-0.04889	0.65788	0.75149	-0.02448	0.00426	0.00000	0.62908	-0.68654	9.89883
 1620118017	  640904998	-0.00393	-0.04502	0.65782	0.75181	-0.01277	0.00426	0.00000	0.61651	-0.64883	9.90661
 1620118017	  752904998	-0.00965	-0.04497	0.65795	0.75165	-0.01490	0.00426	0.00000	0.60633	-0.68594	9.89224
 1620118017	  858904998	-0.00418	-0.04824	0.65764	0.75177	-0.02767	0.00426	0.00000	0.66679	-0.69432	9.94671
 1620118017	  947705919	-0.00696	-0.04887	0.65748	0.75185	0.00532	0.00639	-0.00745	0.65242	-0.73741	9.85334
 1620118018	   30705919	-0.00275	-0.04242	0.65730	0.75243	-0.01064	0.00000	-0.01171	0.55306	-0.56623	9.97245
 1620118018	  135705919	-0.00932	-0.05041	0.65651	0.75257	-0.01171	-0.00851	-0.01916	0.63506	-0.80744	9.83777
 1620118018	  256705919	-0.00236	-0.04612	0.65514	0.75409	0.00745	0.00000	-0.03405	0.65003	-0.62668	9.90421
 1620118018	  326705919	-0.00684	-0.04771	0.65420	0.75478	0.00000	0.00000	-0.04257	0.62489	-0.72544	9.86650
 1620118018	  437705919	-0.00439	-0.04687	0.65212	0.75665	0.00000	0.00000	-0.05427	0.64344	-0.65841	9.82820
 1620118018	  553705919	-0.00806	-0.04768	0.64965	0.75869	0.01383	0.00426	-0.06704	0.63386	-0.75118	9.84496
 1620118018	  653705919	-0.00318	-0.04445	0.64699	0.76119	0.01703	0.00639	-0.07556	0.62489	-0.60932	9.85932
 1620118018	  776705919	-0.00529	-0.04570	0.64606	0.76189	0.01277	0.00532	-0.07662	0.61830	-0.69312	9.90781
 1620118018	  836705919	0.00040	-0.04414	0.64156	0.76579	0.01809	0.00851	-0.07875	0.63027	-0.57042	9.87309
 1620118018	  917705919	-0.00442	-0.04550	0.63913	0.76773	0.00745	0.00426	-0.07662	0.62908	-0.64404	9.84496
 1620118019	   54705919	-0.00160	-0.03943	0.63539	0.77118	-0.02448	0.01277	-0.07449	0.63686	-0.54708	9.93414
 1620118019	  150705919	-0.00996	-0.04755	0.63253	0.77300	-0.04257	0.01171	-0.07130	0.58059	-0.77931	9.85932
 1620118019	  231705919	-0.00842	-0.04555	0.63021	0.77504	0.03618	0.00000	-0.07130	0.60274	-0.68893	9.87369
 1620118019	  348705919	0.00322	-0.04230	0.62692	0.77792	0.00000	0.00639	-0.07024	0.70509	-0.42437	9.94372
 1620118019	  438705919	-0.00470	-0.04491	0.62452	0.77970	-0.02980	0.01277	-0.06598	0.62070	-0.68235	9.90002
 1620118019	  524705919	-0.00992	-0.04678	0.62249	0.78116	0.02554	0.00000	-0.06704	0.60154	-0.73382	9.86112
 1620118019	  648705919	0.00167	-0.04186	0.61932	0.78401	0.04895	0.00000	-0.06279	0.67516	-0.49380	9.94671
 1620118019	  797705919	0.00221	-0.04154	0.61855	0.78464	0.02341	0.00000	-0.06172	0.68115	-0.47405	9.88267
 1620118019	  846705919	-0.00836	-0.04608	0.61496	0.78716	0.00000	0.00000	-0.05534	0.61651	-0.69073	9.86291
 1620118019	  939705919	-0.00341	-0.04369	0.61297	0.78888	0.03299	-0.00532	-0.05321	0.64045	-0.59376	9.88267
 1620118020	   36705919	0.00198	-0.04112	0.61095	0.79059	-0.01809	0.00426	-0.04789	0.67098	-0.46627	9.93115
 1620118020	  161705919	-0.00863	-0.04276	0.60881	0.79211	-0.03938	0.00000	-0.04363	0.55964	-0.64943	9.84436
 1620118020	  240705919	-0.00844	-0.04802	0.60730	0.79297	0.01064	0.00000	-0.04470	0.66140	-0.71168	9.87548
 1620118020	  352705919	-0.00146	-0.04222	0.60561	0.79464	0.04150	0.00000	-0.03618	0.64165	-0.52912	9.87249
 1620118020	  425705919	0.00026	-0.04093	0.60468	0.79541	-0.02022	0.00000	-0.02661	0.65182	-0.51894	9.91858
 1620118020	  571956022	-0.00827	-0.04539	0.60362	0.79593	-0.03086	0.00745	-0.01703	0.60094	-0.66080	9.84137
 1620118020	  663956022	-0.00265	-0.04291	0.60299	0.79658	0.00639	-0.00426	-0.01277	0.64344	-0.55486	9.84735
 1620118020	  822956022	-0.00059	-0.04500	0.60269	0.79670	0.00000	0.00000	-0.00958	0.69013	-0.55665	9.92636
 1620118020	  861956022	-0.01035	-0.04626	0.60249	0.79672	-0.03831	0.00745	0.00000	0.61471	-0.70509	9.84735
 1620118020	  978956022	-0.00558	-0.04463	0.60236	0.79695	0.00958	0.00000	0.00000	0.63746	-0.57760	9.88626
 1620118021	   58956022	-0.00520	-0.04316	0.60242	0.79699	0.00745	0.00000	0.00000	0.63626	-0.56264	9.89344
 1620118021	  156956022	-0.00442	-0.04436	0.60255	0.79683	-0.02022	0.00745	0.00639	0.63985	-0.63327	9.87488
 1620118021	  269956022	-0.00490	-0.04459	0.60292	0.79654	0.00639	0.00000	0.01064	0.63267	-0.66319	9.87369
 1620118021	  365956022	-0.00298	-0.04321	0.60345	0.79622	0.01703	0.00000	0.01490	0.64823	-0.56922	9.88985
 1620118021	  453956022	-0.00351	-0.04323	0.60409	0.79573	-0.01383	0.00000	0.02341	0.64224	-0.57461	9.89763
 1620118021	  566956022	-0.00749	-0.04350	0.60532	0.79475	-0.00532	-0.00426	0.02661	0.59855	-0.64344	9.87548
 1620118021	  657956022	-0.00639	-0.04616	0.60622	0.79393	0.02554	-0.01383	0.03086	0.64703	-0.66140	9.89164
 1620118021	  816956022	-0.00191	-0.04324	0.60698	0.79353	0.02980	-0.01383	0.03299	0.65362	-0.58119	9.89703
 1620118021	  856956022	-0.00675	-0.04631	0.60922	0.79161	0.00000	-0.00958	0.04044	0.65841	-0.65721	9.85094
 1620118021	  957956022	-0.00602	-0.04439	0.61095	0.79040	0.02128	-0.00851	0.04044	0.61711	-0.63267	9.86890
 1620118022	   75956022	-0.00403	-0.04087	0.61293	0.78906	0.00745	0.00000	0.03938	0.61890	-0.58778	9.86710
 1620118022	  160956022	-0.00542	-0.04537	0.61406	0.78793	-0.00745	0.00639	0.03831	0.64763	-0.62848	9.87668
 1620118022	  252956022	-0.00517	-0.04426	0.61554	0.78684	0.00000	0.00000	0.03725	0.62968	-0.62549	9.87908
 1620118022	  377956022	-0.00266	-0.04667	0.61698	0.78558	0.00532	0.00000	0.03086	0.65362	-0.61830	9.89643
 1620118022	  461956022	-0.00602	-0.04440	0.61811	0.78481	0.00000	0.00000	0.02554	0.59795	-0.63925	9.88087
 1620118022	  548956022	-0.00579	-0.04477	0.61889	0.78418	0.00532	0.00000	0.02128	0.63446	-0.64524	9.91858
 1620118022	  662956022	-0.00280	-0.04265	0.61973	0.78365	0.00851	0.00000	0.01703	0.63267	-0.58957	9.90541
 1620118022	  840956022	-0.00485	-0.04459	0.62015	0.78320	0.00000	0.00000	0.01277	0.63805	-0.60154	9.90601
 1620118022	  872956022	-0.01289	-0.04223	0.62102	0.78254	-0.01064	0.00000	0.00851	0.61770	-0.61052	9.82102
 1620118022	  991825037	-0.00219	-0.04424	0.62090	0.78263	-0.00639	0.00000	0.00426	0.63207	-0.59675	9.91199
 1620118023	   57825037	-0.00574	-0.04299	0.62112	0.78251	-0.00851	0.00000	0.00426	0.62728	-0.61711	9.83598
 1620118023	  169825037	-0.00505	-0.04515	0.62102	0.78247	-0.00532	0.00000	0.00000	0.63985	-0.63566	9.89643
 1620118023	  276825037	-0.00205	-0.04400	0.62097	0.78259	0.00000	-0.00532	0.00000	0.63925	-0.61052	9.89823
 1620118023	  355825037	-0.00263	-0.04443	0.62099	0.78255	0.00000	-0.00745	0.00000	0.64703	-0.59316	9.87010
 1620118023	  459825037	-0.00412	-0.04520	0.62102	0.78247	-0.00639	0.00000	0.00000	0.64344	-0.64703	9.86650
 1620118023	  568825037	-0.00515	-0.04656	0.62099	0.78241	-0.00426	0.00000	0.00000	0.64943	-0.62369	9.84017
 1620118023	  668825037	-0.00609	-0.04764	0.62098	0.78235	-0.00532	0.00000	0.00000	0.65422	-0.64045	9.88985
 1620118023	  862825037	-0.00494	-0.04339	0.62106	0.78254	-0.00745	0.00000	0.00000	0.63386	-0.63805	9.84077
 1620118023	  888825037	-0.00825	-0.05338	0.62082	0.78208	0.00426	0.00426	0.00000	0.63386	-0.62189	9.88865
 1620118023	  954825037	-0.00542	-0.04733	0.62095	0.78239	0.00639	0.00426	0.00000	0.63805	-0.62249	9.89524
 1620118024	   24825037	-0.00521	-0.04246	0.62111	0.78255	0.00532	0.00000	0.00000	0.63865	-0.64404	9.88745
 1620118024	  175825037	-0.00455	-0.04516	0.62103	0.78246	0.00958	0.00000	0.00000	0.63686	-0.61232	9.84496
 1620118024	  265825037	-0.00483	-0.04624	0.62103	0.78240	0.00532	0.00000	0.00000	0.64464	-0.60394	9.85394
 1620118024	  357825037	-0.00388	-0.04456	0.62105	0.78249	0.00000	0.00000	0.00000	0.65182	-0.59316	9.86950
 1620118024	  445825037	-0.00515	-0.04433	0.62110	0.78246	0.00000	0.00000	0.00000	0.62189	-0.62608	9.86471
 1620118024	  564825037	-0.00308	-0.04421	0.62104	0.78252	0.00426	0.00000	0.00000	0.63686	-0.61531	9.88686
 1620118024	  649825037	-0.00470	-0.04398	0.62100	0.78255	0.00000	-0.00532	-0.00426	0.61711	-0.61531	9.84496
 1620118024	  842825037	-0.00501	-0.04514	0.62093	0.78255	0.00000	-0.00532	-0.00426	0.63147	-0.63686	9.85034
 1620118024	  873825037	0.00383	-0.04619	0.62036	0.78294	0.00000	-0.00532	-0.00426	0.65302	-0.61411	9.88207
 1620118024	  947825037	-0.00353	-0.04453	0.62054	0.78290	0.00000	-0.00426	-0.00639	0.63386	-0.61052	9.88566
 1620118025	   56825037	-0.00482	-0.04400	0.62037	0.78305	0.00000	0.00000	-0.00639	0.64045	-0.61531	9.87309
 1620118025	  146825037	-0.00412	-0.04463	0.62013	0.78321	0.00000	0.00000	-0.00532	0.64524	-0.61292	9.89045
 1620118025	  261825037	-0.00186	-0.04285	0.61984	0.78355	-0.00639	0.00000	-0.00639	0.64584	-0.59077	9.87249
 1620118025	  365825037	-0.00454	-0.04518	0.61959	0.78361	-0.00745	0.00532	-0.00745	0.64404	-0.62369	9.85813
 1620118025	  448825037	-0.00440	-0.04540	0.61937	0.78377	-0.00532	0.00532	-0.00532	0.62309	-0.61890	9.89045
 1620118025	  559214105	-0.00470	-0.04189	0.61925	0.78405	-0.00426	0.00532	-0.00532	0.62728	-0.61052	9.88147
 1620118025	  663214105	-0.00453	-0.04524	0.61887	0.78417	0.00000	0.00532	-0.00639	0.65182	-0.62908	9.88745
 1620118025	  856214105	-0.00664	-0.04724	0.61864	0.78422	0.00000	0.00532	-0.00532	0.64165	-0.62908	9.89464
 1620118025	  883214105	-0.00212	-0.04079	0.61843	0.78477	0.00000	0.00000	-0.00639	0.64763	-0.61172	9.86770
 1620118025	  987214105	-0.00717	-0.04402	0.61825	0.78471	0.00000	0.00000	-0.00532	0.63267	-0.62848	9.87788
 1620118026	   65214105	-0.00298	-0.04580	0.61788	0.78493	0.00000	0.00000	-0.00639	0.65422	-0.62369	9.88686
 1620118026	  164214105	-0.00414	-0.04434	0.61772	0.78513	0.00000	-0.00426	-0.00532	0.63267	-0.60334	9.86411
 1620118026	  274214105	-0.00318	-0.04238	0.61752	0.78540	0.00000	0.00000	-0.00532	0.61830	-0.60813	9.86411
 1620118026	  362214105	-0.00476	-0.04553	0.61730	0.78539	0.00426	-0.00532	-0.00532	0.65422	-0.59855	9.87608
 1620118026	  462214105	-0.00485	-0.04509	0.61713	0.78555	0.00532	-0.00532	-0.00426	0.63865	-0.62429	9.87249
 1620118026	  570214105	-0.00354	-0.04677	0.61684	0.78568	0.00532	0.00000	-0.00532	0.64344	-0.61292	9.88207
 1620118026	  669214105	-0.00542	-0.04460	0.61677	0.78585	0.00639	0.00000	-0.00426	0.62010	-0.63327	9.86351
 1620118026	  867214105	-0.00756	-0.04556	0.61666	0.78587	0.00532	0.00000	-0.00426	0.63566	-0.62788	9.85872
 1620118026	  884214105	0.00011	-0.04326	0.61649	0.78617	0.00000	0.00000	0.00000	0.65900	-0.60454	9.87429
 1620118026	  932214105	-0.00347	-0.04381	0.61657	0.78607	0.00000	0.00000	0.00000	0.61471	-0.60274	9.90481
 1620118027	   85214105	-0.00509	-0.04468	0.61656	0.78602	0.00000	0.00639	0.00000	0.63746	-0.62249	9.87249
 1620118027	  179214105	-0.00385	-0.04437	0.61652	0.78607	0.00000	0.00000	0.00000	0.64703	-0.59975	9.88386
 1620118027	  274214105	-0.00536	-0.04481	0.61655	0.78602	0.00000	0.00000	0.00000	0.63147	-0.63087	9.85693
 1620118027	  349214105	-0.00494	-0.04424	0.61655	0.78605	0.00000	0.00000	0.00000	0.63207	-0.61591	9.87010
 1620118027	  468214105	-0.00404	-0.04502	0.61649	0.78606	-0.00426	0.00000	0.00000	0.64524	-0.61591	9.90182
 1620118027	  511214105	-0.00370	-0.04442	0.61649	0.78609	-0.00426	0.00000	0.00000	0.64763	-0.60274	9.89164
 1620118027	  749214105	-0.00383	-0.04321	0.61650	0.78615	-0.00745	-0.00426	0.00000	0.63566	-0.61471	9.88326
 1620118028	   14315059	-0.00419	-0.04443	0.61647	0.78611	-0.00851	0.00000	0.00000	0.64165	-0.60992	9.89045
 1620118028	   92315059	-0.01268	-0.05988	0.61613	0.78526	-0.00426	0.00000	0.00000	0.64045	-0.62848	9.86411
 1620118028	  145315059	-0.01017	-0.05527	0.61624	0.78555	-0.00426	0.00000	0.00000	0.64284	-0.61172	9.86531
 1620118028	  255315059	-0.00526	-0.04573	0.61642	0.78607	0.00000	0.00000	0.00000	0.63566	-0.61591	9.87429
 1620118028	  351315059	-0.00474	-0.04466	0.61644	0.78612	0.00000	0.00000	0.00000	0.63865	-0.59795	9.85573
 1620118028	  432315059	-0.00536	-0.04519	0.61644	0.78608	0.00000	0.00000	0.00000	0.63805	-0.64165	9.85813
 1620118028	  582315059	-0.00609	-0.04672	0.61660	0.78586	0.00532	0.00000	0.00426	0.63207	-0.62848	9.86052
 1620118028	  658315059	-0.00413	-0.04232	0.61675	0.78600	0.00532	0.00000	0.00426	0.62549	-0.60633	9.87848
 1620118028	  758315059	-0.00484	-0.04485	0.61684	0.78579	0.00532	0.00000	0.00426	0.63386	-0.62848	9.87369
 1620118028	  912315059	-0.00326	-0.04683	0.61680	0.78571	0.00532	0.00000	0.00426	0.64584	-0.61292	9.88027
 1620118028	  966315059	-0.00516	-0.04015	0.61734	0.78564	0.00000	0.00000	0.00426	0.63626	-0.61591	9.87249
 1620118029	   50315059	-0.00452	-0.04439	0.61735	0.78541	0.00000	0.00000	0.00426	0.63805	-0.61411	9.90541
 1620118029	  163315059	-0.00612	-0.04492	0.61756	0.78521	0.00000	-0.00532	0.00426	0.62429	-0.61770	9.86890
 1620118029	  237315059	-0.00497	-0.04188	0.61775	0.78524	0.00426	-0.00639	0.00426	0.62908	-0.61292	9.87309
 1620118029	  366315059	-0.00541	-0.04693	0.61786	0.78486	0.00000	-0.00639	0.00426	0.63746	-0.60873	9.86172
 1620118029	  440315059	-0.00463	-0.04475	0.61804	0.78485	0.00000	-0.00639	0.00426	0.63805	-0.62010	9.87010
 1620118029	  597315059	-0.00463	-0.04476	0.61835	0.78461	0.00000	0.00000	0.00532	0.64404	-0.61830	9.86531
 1620118029	  640315059	-0.00620	-0.04347	0.61851	0.78454	0.00000	0.00000	0.00532	0.65062	-0.62189	9.85154
 1620118029	  750315059	-0.00525	-0.04497	0.61863	0.78437	0.00000	0.00000	0.00532	0.63446	-0.62189	9.83059
 1620118030	   71315059	0.01550	-0.05387	0.61816	0.78404	0.00000	0.00426	0.00426	0.63805	-0.61531	9.88865
 1620118030	  109315059	0.01205	-0.05223	0.61837	0.78405	0.00000	0.00639	0.00000	0.64584	-0.60154	9.91259
 1620118030	  117315059	0.01088	-0.05169	0.61846	0.78403	0.00000	0.00426	0.00532	0.64643	-0.60094	9.87608
 1620118030	  271315059	-0.00282	-0.04538	0.61943	0.78373	-0.00426	0.00426	0.00000	0.63865	-0.62489	9.90122
 1620118030	  347315059	-0.00496	-0.04426	0.61966	0.78360	-0.00426	0.00000	0.00000	0.63027	-0.62130	9.88446
 1620118030	  440315059	-0.00525	-0.04515	0.61965	0.78356	0.00000	0.00000	0.00000	0.63985	-0.63805	9.88386
 1620118030	  561949047	-0.00333	-0.04762	0.61958	0.78347	0.00000	0.00000	0.00426	0.63027	-0.63805	9.88446
 1620118030	  667949047	-0.00415	-0.04429	0.61978	0.78351	0.00000	-0.00426	0.00426	0.63686	-0.61232	9.89404
 1620118030	  755949047	-0.00488	-0.04456	0.61980	0.78348	0.00000	-0.00639	0.00000	0.63327	-0.62010	9.87728
 1620118030	  966949047	-0.00497	-0.03027	0.62022	0.78382	0.00426	-0.00639	0.00000	0.64404	-0.60154	9.86411
 1620118031	   52949047	-0.00455	-0.03911	0.62000	0.78361	0.00426	-0.00426	0.00000	0.63985	-0.62429	9.88326
 1620118031	  350949047	-0.00449	-0.04297	0.61990	0.78348	0.00639	0.00000	0.00000	0.63027	-0.62489	9.88865
 1620118031	  365949047	-0.00428	-0.04435	0.61986	0.78344	0.00532	0.00000	0.00000	0.64224	-0.61711	9.88326
 1620118031	  463949047	-0.00369	-0.04467	0.61984	0.78344	0.00532	0.00000	0.00000	0.65242	-0.60573	9.86471
 1620118032	  115949047	-0.00655	-0.04644	0.61988	0.78329	0.00000	0.00000	0.00000	0.63267	-0.63327	9.85094
 1620118032	  127949047	0.01538	-0.02967	0.61950	0.78428	0.00000	0.00000	0.00000	0.62848	-0.60274	9.86770
 1620118032	  175949047	0.01145	-0.03260	0.61960	0.78415	-0.00532	0.00000	0.00000	0.64165	-0.60813	9.90421
 1620118032	  263949047	0.00432	-0.03793	0.61960	0.78399	-0.00532	0.00000	-0.00426	0.62968	-0.62249	9.90721
 1620118032	  394949047	-0.00567	-0.04446	0.61952	0.78369	-0.00639	0.00000	-0.00426	0.63027	-0.63027	9.87668
 1620118032	  470949047	-0.01084	-0.04361	0.61957	0.78365	-0.00639	0.00000	-0.00426	0.62489	-0.63027	9.88865
 1620118032	  567949047	-0.00464	-0.04418	0.61914	0.78402	-0.00532	0.00000	-0.00426	0.62728	-0.60573	9.89045
 1620118032	  647949047	-0.00414	-0.04452	0.61902	0.78410	0.00000	0.00000	-0.00426	0.64165	-0.60633	9.86411
 1620118032	  786949047	-0.00488	-0.04498	0.61876	0.78427	0.00000	0.00000	-0.00639	0.64643	-0.62489	9.88207
 1620118033	   93335992	0.01084	-0.03771	0.61776	0.78538	0.00000	0.00000	-0.00532	0.62848	-0.61292	9.84855
 1620118033	  145335992	0.00610	-0.03990	0.61779	0.78530	0.00000	0.00000	-0.00426	0.63686	-0.62309	9.85753
 1620118033	  222335992	-0.00131	-0.04327	0.61779	0.78515	0.00426	0.00426	-0.00532	0.64823	-0.62309	9.87189
 1620118033	  288335992	-0.00684	-0.04530	0.61780	0.78499	0.00426	0.00426	-0.00426	0.63386	-0.62968	9.87309
 1620118033	  387335992	-0.00630	-0.04225	0.61768	0.78527	0.00000	0.00000	-0.00532	0.62608	-0.63027	9.86650
 1620118033	  490335992	-0.00438	-0.04447	0.61734	0.78542	0.00532	0.00000	-0.00532	0.63865	-0.61471	9.87848
 1620118033	  593335992	-0.00520	-0.04571	0.61712	0.78552	0.00639	0.00000	-0.00532	0.64404	-0.62429	9.89883
 1620118033	  729335992	-0.00729	-0.04351	0.61695	0.78576	0.00426	-0.00426	-0.00532	0.62728	-0.62249	9.88686
 1620118033	  863335992	-0.00478	-0.04466	0.61653	0.78605	0.00000	-0.00426	-0.00639	0.63985	-0.62668	9.89045
 1620118034	  524335992	-0.00527	-0.04423	0.61652	0.78607	0.00000	-0.00426	-0.00745	0.61651	-0.63087	9.86112
 1620118034	  530335992	0.05152	-0.07452	0.61084	0.78655	0.00000	0.00000	-0.00532	0.64883	-0.61351	9.87369
 1620118034	  555335992	0.04969	-0.07358	0.61100	0.78663	-0.00426	0.00426	0.00000	0.64703	-0.62848	9.87429
 1620118034	  563335992	0.04860	-0.07302	0.61110	0.78668	-0.00426	0.00426	0.00000	0.62728	-0.62070	9.88326
 1620118034	  588335992	0.04678	-0.07206	0.61125	0.78675	-0.00532	0.00000	0.00000	0.61351	-0.62010	9.87429
 1620118034	  679335992	0.03854	-0.06776	0.61192	0.78707	-0.00532	0.00426	0.00000	0.63027	-0.60094	9.91080
 1620118034	  776335992	0.02973	-0.06323	0.61258	0.78731	-0.00532	0.00532	0.00000	0.62848	-0.62968	9.87908
 1620118035	  630133066	-0.03776	-0.02745	0.61593	0.78641	0.00000	-0.00426	0.00000	0.64165	-0.62489	9.88506
 1620118035	  849133066	-0.01805	-0.03741	0.61536	0.78715	0.00532	0.00000	0.00000	0.62429	-0.62309	9.89344
 1620118036	   62133066	-0.00016	-0.04676	0.61457	0.78747	0.00426	0.00000	0.00000	0.64165	-0.62908	9.88326
 1620118036	  104133066	-0.00395	-0.04499	0.61476	0.78742	0.00000	0.00426	0.00000	0.63925	-0.62070	9.87189
 1620118036	  220133066	-0.00583	-0.04548	0.61480	0.78735	0.00000	0.00000	0.00000	0.64224	-0.59436	9.86531
 1620118036	  296133066	-0.00504	-0.04347	0.61483	0.78744	0.00000	0.00000	0.00000	0.63386	-0.59436	9.87189
 1620118036	  368133066	-0.00686	-0.04644	0.61481	0.78727	0.00000	0.00000	0.00000	0.63746	-0.62309	9.90601
 1620118036	  486133066	-0.00753	-0.04773	0.61478	0.78721	0.00000	0.00000	0.00000	0.64763	-0.62668	9.89524
 1620118036	  573133066	-0.00530	-0.04550	0.61479	0.78736	0.00000	0.00000	0.00000	0.64464	-0.63506	9.87249
 1620118036	  700133066	-0.00667	-0.04359	0.61499	0.78729	0.00000	0.00000	0.00000	0.63865	-0.62608	9.85693
 1620118036	  782133066	-0.00390	-0.04386	0.61492	0.78735	0.00000	0.00000	0.00426	0.64284	-0.59556	9.86172
 1620118036	  956133066	-0.01116	-0.03824	0.61549	0.78713	-0.00532	-0.00426	0.00426	0.65182	-0.62309	9.88745
 1620118036	  994133066	-0.00852	-0.04109	0.61535	0.78713	-0.00639	-0.00426	0.00426	0.63626	-0.62549	9.89284
 1620118037	   92133066	-0.00222	-0.04494	0.61513	0.78713	-0.00745	0.00000	0.00426	0.63506	-0.61112	9.89344
 1620118037	  179133066	-0.00623	-0.04391	0.61541	0.78695	-0.00532	0.00000	0.00426	0.63386	-0.62908	9.88506
 1620118037	  276133066	-0.00469	-0.04456	0.61547	0.78688	0.00000	0.00000	0.00426	0.64464	-0.61950	9.88626
 1620118037	  388133066	-0.00506	-0.04259	0.61574	0.78678	0.00000	0.00000	0.00426	0.64344	-0.61711	9.85453
 1620118037	  491133066	-0.00503	-0.04415	0.61590	0.78656	0.00000	0.00000	0.00532	0.62668	-0.61890	9.86112
 1620118037	  583133066	-0.00463	-0.04414	0.61604	0.78646	0.00000	0.00000	0.00000	0.64165	-0.60154	9.86172
 1620118037	  691133066	-0.00341	-0.04378	0.61618	0.78637	0.00000	0.00000	0.00426	0.63506	-0.62848	9.87309
 1620118037	  789133066	-0.00543	-0.04380	0.61640	0.78619	0.00000	0.00000	0.00426	0.62309	-0.62788	9.86052
 1620118037	  966133066	0.00474	-0.04102	0.61614	0.78655	0.00000	0.00000	0.00000	0.63805	-0.61770	9.86830
 1620118037	  950953014	0.00114	-0.04236	0.61623	0.78642	0.00426	0.00000	0.00000	0.62968	-0.63267	9.88207
 1620118038	   44953014	-0.00348	-0.04219	0.61649	0.78622	0.00532	0.00000	0.00000	0.64165	-0.61591	9.88745
 1620118038	  123953014	-0.00441	-0.04390	0.61648	0.78613	0.00426	-0.00532	0.00000	0.64464	-0.62549	9.89164
 1620118038	  230953014	-0.00408	-0.04513	0.61645	0.78608	0.00426	-0.00532	0.00000	0.65541	-0.61890	9.87488
 1620118038	  333953014	-0.00703	-0.04564	0.61654	0.78596	0.00000	-0.00532	0.00000	0.63087	-0.61471	9.85932
 1620118038	  425953014	-0.00555	-0.04320	0.61658	0.78608	0.00000	0.00000	0.00000	0.64943	-0.62848	9.89045
 1620118038	  498953014	-0.00597	-0.04385	0.61657	0.78605	0.00000	0.00000	0.00000	0.62189	-0.61830	9.89164
 1620118038	  619953014	-0.00930	-0.04497	0.61664	0.78590	-0.00426	0.00000	0.00000	0.63985	-0.61890	9.86890
 1620118038	  742953014	-0.00363	-0.04599	0.61642	0.78606	0.00000	0.00000	0.00000	0.63626	-0.62968	9.86351
 1620118038	  927953014	-0.00569	-0.04655	0.61647	0.78598	0.00000	0.00000	0.00000	0.64883	-0.63446	9.85573
 1620118038	  939953014	-0.00266	-0.03608	0.61668	0.78638	0.00000	0.00000	0.00000	0.64464	-0.60154	9.86291
 1620118039	   41953014	-0.00420	-0.04494	0.61646	0.78609	-0.00426	0.00000	0.00000	0.64823	-0.61471	9.86471
 1620118039	  138953014	-0.00456	-0.04480	0.61647	0.78609	-0.00532	0.00426	0.00000	0.64224	-0.62848	9.88506
 1620118039	  232953014	-0.00528	-0.04443	0.61648	0.78609	-0.00426	0.00426	0.00000	0.62608	-0.62130	9.85932
 1620118039	  339953014	-0.00629	-0.04203	0.61656	0.78615	-0.00426	0.00426	0.00000	0.63686	-0.63267	9.88027
 1620118039	  430953014	-0.00456	-0.04545	0.61640	0.78610	0.00000	0.00000	0.00000	0.65481	-0.61770	9.86052
 1620118039	  536953014	-0.00542	-0.04537	0.61643	0.78608	0.00000	0.00000	0.00000	0.64883	-0.62848	9.85992
 1620118039	  623953014	-0.00474	-0.04415	0.61645	0.78614	0.00000	0.00000	0.00000	0.62309	-0.60633	9.87369
 1620118039	  728953014	-0.00557	-0.04448	0.61645	0.78611	0.00000	-0.00426	-0.00426	0.62189	-0.63686	9.86710
 1620118039	  930953014	-0.00519	-0.04466	0.61643	0.78612	0.00000	-0.00639	0.00000	0.64045	-0.62728	9.87608
 1620118039	  947953014	0.00590	-0.04785	0.61595	0.78630	0.00000	0.00000	0.00000	0.63446	-0.61052	9.88087
 1620118040	    8953014	0.00016	-0.04604	0.61618	0.78626	0.00000	-0.00426	-0.00426	0.62968	-0.60274	9.86172
 1620118040	  125953014	-0.00697	-0.04107	0.61638	0.78634	0.00426	0.00000	-0.00426	0.63865	-0.60813	9.88446
 1620118040	  253953014	-0.00281	-0.04370	0.61595	0.78656	0.00532	0.00000	-0.00426	0.63446	-0.61711	9.86351
 1620118040	  336953014	-0.00268	-0.04506	0.61579	0.78661	0.00745	0.00000	-0.00532	0.64823	-0.61531	9.87728
 1620118040	  429953014	-0.00495	-0.04453	0.61573	0.78667	0.00000	0.00000	-0.00426	0.63925	-0.61711	9.88985
 1620118040	  566863111	-0.00797	-0.04382	0.61565	0.78676	0.00000	0.00000	-0.00426	0.62189	-0.62010	9.85274
 1620118040	  651863111	-0.00442	-0.04435	0.61535	0.78699	0.00000	0.00000	-0.00532	0.63746	-0.61950	9.91080
 1620118040	  741863111	-0.00501	-0.04360	0.61522	0.78713	0.00000	0.00426	-0.00426	0.62369	-0.61292	9.88985
 1620118040	  986863111	-0.01844	-0.03968	0.61518	0.78717	0.00000	0.00000	-0.00532	0.61591	-0.62130	9.86770
 1620118041	    6863111	-0.01641	-0.04040	0.61506	0.78727	0.00000	0.00000	-0.00532	0.63327	-0.61770	9.84975
 1620118041	   57863111	-0.01160	-0.04201	0.61478	0.78749	0.00000	0.00000	-0.00532	0.64344	-0.61232	9.89703
 1620118041	  155863111	-0.00273	-0.04567	0.61420	0.78782	0.00000	0.00000	-0.00532	0.63207	-0.61890	9.87548
 1620118041	  263863111	-0.00465	-0.04491	0.61405	0.78797	-0.00532	0.00000	-0.00532	0.63027	-0.60035	9.86770
 1620118041	  379863111	-0.00299	-0.04699	0.61367	0.78815	-0.00745	0.00000	-0.00532	0.64224	-0.60513	9.86471
 1620118041	  450863111	-0.00350	-0.04699	0.61352	0.78827	-0.00639	0.00000	-0.00532	0.63865	-0.62369	9.84316
 1620118041	  532863111	-0.00287	-0.04343	0.61344	0.78853	-0.00532	0.00000	-0.00532	0.64105	-0.60813	9.87309
 1620118041	  647863111	-0.00498	-0.04926	0.61312	0.78843	0.00000	0.00000	-0.00426	0.61471	-0.61172	9.88626
 1620118041	  744863111	-0.00441	-0.04469	0.61308	0.78873	0.00000	0.00000	-0.00426	0.64703	-0.62070	9.86232
 1620118041	  932863111	-0.00364	-0.04506	0.61300	0.78878	0.00000	0.00000	0.00000	0.65182	-0.60035	9.86650
 1620118041	  971863111	-0.00927	-0.04157	0.61328	0.78871	0.00000	0.00000	0.00000	0.65661	-0.60693	9.88147
 1620118042	   47863111	-0.00486	-0.04453	0.61305	0.78876	0.00000	0.00000	0.00000	0.65422	-0.63446	9.87010
 1620118042	  149863111	-0.00633	-0.04644	0.61304	0.78866	0.00000	0.00000	0.00000	0.62968	-0.60513	9.87488
 1620118042	  254863111	-0.00595	-0.04433	0.61309	0.78874	0.00000	0.00426	0.00000	0.61292	-0.63626	9.84615
 1620118042	  351863111	-0.00529	-0.04404	0.61308	0.78877	0.00745	0.00000	0.00000	0.62429	-0.61830	9.87129
 1620118042	  470863111	-0.00159	-0.04462	0.61295	0.78885	0.00000	0.00000	0.00000	0.64464	-0.60513	9.89105
 1620118042	  571863111	-0.00863	-0.04372	0.61321	0.78866	0.00426	0.00000	0.00000	0.60873	-0.64165	9.87668
 1620118042	  637863111	-0.00564	-0.04439	0.61311	0.78872	0.00745	0.00000	0.00000	0.62429	-0.62908	9.86591
 1620118042	  755863111	-0.00545	-0.04487	0.61311	0.78870	0.00000	-0.00426	0.00000	0.65541	-0.61172	9.87668
 1620118042	  830863111	-0.00284	-0.04423	0.61305	0.78880	0.00000	-0.00426	0.00000	0.63506	-0.62249	9.87429
 1620118043	  757018932	-0.05361	-0.06834	0.61305	0.78525	0.00000	0.00000	0.00000	0.64464	-0.62608	9.87429
 1620118043	  778018932	-0.05169	-0.06742	0.61308	0.78543	-0.00426	0.00000	0.00000	0.63027	-0.61052	9.86112
 1620118043	  790018932	-0.05019	-0.06669	0.61311	0.78557	0.00000	0.00000	0.00000	0.63027	-0.59675	9.86950
 1620118043	  909018932	-0.03995	-0.06150	0.61324	0.78648	-0.00639	0.00000	0.00000	0.64464	-0.62668	9.91140
 1620118044	   44018932	-0.02872	-0.05586	0.61329	0.78735	0.00000	0.00532	0.00000	0.63386	-0.60094	9.85633
 1620118044	  125018932	-0.02147	-0.05232	0.61332	0.78780	-0.00745	0.00426	0.00000	0.63147	-0.62070	9.89763
 1620118044	  308018932	-0.01506	-0.04945	0.61331	0.78814	-0.00532	0.00000	0.00000	0.64344	-0.62968	9.90661
 1620118044	  340018932	-0.00515	-0.04434	0.61343	0.78848	0.00000	0.00000	0.00426	0.61890	-0.62848	9.83478
 1620118044	  418018932	-0.00515	-0.04531	0.61348	0.78839	0.00000	0.00000	0.00426	0.64464	-0.63805	9.86291
 1620118044	  514018932	-0.00550	-0.04446	0.61352	0.78840	0.00000	-0.00532	0.00000	0.62309	-0.61112	9.87967
 1620118044	  577018932	-0.00503	-0.04535	0.61349	0.78838	0.00000	-0.00639	0.00000	0.64703	-0.62249	9.88207
 1620118044	  724018932	-0.00482	-0.04490	0.61362	0.78831	0.00000	-0.00639	0.00426	0.64823	-0.61830	9.82940
 1620118044	  813018932	-0.00521	-0.04493	0.61367	0.78826	0.00000	-0.00426	0.00426	0.64224	-0.62848	9.84316
 1620118044	  901018932	-0.00491	-0.04487	0.61370	0.78824	0.00639	-0.00532	0.00426	0.63686	-0.61112	9.85034
 1620118045	   19018932	-0.00526	-0.04329	0.61392	0.78816	0.00000	0.00000	0.00000	0.65541	-0.61292	9.83418
 1620118045	  127018932	-0.00600	-0.04585	0.61389	0.78803	0.00000	0.00000	0.00000	0.66798	-0.63207	9.87848
 1620118045	  306018932	-0.00430	-0.04529	0.61391	0.78806	0.00000	0.00000	0.00000	0.64344	-0.64105	9.86830
 1620118045	  328018932	-0.00070	-0.03589	0.61406	0.78844	0.00532	0.00000	0.00000	0.64105	-0.63805	9.91858
 1620118045	  378018932	-0.00266	-0.04098	0.61399	0.78824	0.00000	0.00000	0.00000	0.66080	-0.62309	9.87129
 1620118045	  508018932	-0.00669	-0.04557	0.61397	0.78798	0.00000	0.00000	0.00000	0.63925	-0.66379	9.89583
 1620118045	  617018932	-0.00600	-0.04640	0.61394	0.78796	0.00532	0.00000	0.00000	0.64943	-0.60873	9.90302
 1620118045	  707018932	-0.00434	-0.04472	0.61393	0.78807	0.00000	0.00000	0.00000	0.64165	-0.61651	9.92696
 1620118045	  804018932	-0.00638	-0.04437	0.61400	0.78803	-0.00426	0.00000	0.00000	0.61651	-0.63925	9.87309
 1620118045	  569192949	-0.00508	-0.04261	0.61401	0.78812	0.00000	0.00000	0.00000	0.62189	-0.61830	9.86830
 1620118045	  665192949	-0.00485	-0.04433	0.61395	0.78808	-0.00532	0.00000	0.00000	0.63087	-0.61471	9.86591
 1620118045	  778192949	-0.00430	-0.04740	0.61382	0.78801	-0.00532	0.00000	0.00000	0.63985	-0.61950	9.84735
 1620118045	  946192949	-0.00568	-0.04569	0.61392	0.78802	0.00000	0.00000	0.00000	0.63087	-0.61830	9.84137
 1620118045	  967192949	-0.00069	-0.03964	0.61394	0.78835	0.00000	0.00000	0.00000	0.66080	-0.61651	9.85693
 1620118046	   72192949	-0.00482	-0.04540	0.61390	0.78805	0.00000	0.00000	0.00000	0.65242	-0.63746	9.85453
 1620118046	  170192949	-0.00456	-0.04480	0.61391	0.78808	0.00426	0.00000	0.00000	0.64703	-0.62130	9.87967
 1620118046	  287192949	-0.00476	-0.04676	0.61387	0.78800	0.00000	0.00000	0.00000	0.65122	-0.60873	9.87369
 1620118046	  366192949	-0.00261	-0.04367	0.61389	0.78817	0.00000	0.00000	0.00000	0.64165	-0.61471	9.88925
 1620118046	  475192949	-0.00572	-0.04510	0.61395	0.78803	0.00426	0.00000	0.00000	0.63566	-0.64344	9.86531
 1620118046	  527192949	-0.00460	-0.04503	0.61392	0.78806	0.00000	0.00000	0.00000	0.64943	-0.62130	9.89344
 1620118046	  657192949	-0.00526	-0.04106	0.61406	0.78817	0.00000	0.00000	0.00000	0.62070	-0.63207	9.88985
 1620118046	  774192949	-0.00353	-0.04495	0.61389	0.78810	0.00426	0.00000	0.00000	0.64464	-0.61052	9.90421
 1620118046	  992192949	-0.01216	-0.05501	0.61382	0.78743	0.00000	0.00000	0.00000	0.65242	-0.62489	9.88326
 1620118047	    2192949	-0.01149	-0.05408	0.61384	0.78749	0.00000	0.00000	0.00000	0.63686	-0.63686	9.86052
 1620118047	   73192949	-0.00745	-0.04835	0.61392	0.78785	0.00000	0.00000	0.00000	0.66260	-0.60274	9.84256
 1620118047	  172192949	-0.00596	-0.04456	0.61400	0.78802	0.00000	0.00000	0.00000	0.62908	-0.63267	9.86950
 1620118047	  282192949	-0.00775	-0.04411	0.61406	0.78798	-0.00426	0.00000	0.00000	0.63027	-0.62309	9.85932
 1620118047	  330192949	-0.00527	-0.04525	0.61394	0.78803	0.00000	0.00000	0.00000	0.64045	-0.63147	9.86411
 1620118047	  466192949	-0.00597	-0.04016	0.61412	0.78817	0.00000	0.00000	0.00000	0.63386	-0.60813	9.86052
 1620118047	  561192949	-0.00440	-0.04503	0.61391	0.78807	0.00000	0.00000	0.00000	0.64883	-0.62249	9.87070
 1620118047	  658192949	-0.00520	-0.04395	0.61397	0.78808	0.00000	0.00000	0.00000	0.62489	-0.60454	9.88087
 1620118047	  772192949	-0.00399	-0.04597	0.61387	0.78805	0.00000	0.00000	0.00000	0.61052	-0.60753	9.85693
 1620118047	  914817031	-0.00775	-0.05407	0.61369	0.78765	0.00000	0.00000	0.00000	0.64763	-0.62608	9.87668
 1620118047	  939817031	-0.00716	-0.05214	0.61375	0.78774	0.00000	0.00000	0.00000	0.63506	-0.62429	9.87548
 1620118048	   18817031	-0.00504	-0.04481	0.61393	0.78807	0.00000	0.00000	0.00000	0.64584	-0.62788	9.88087
 1620118048	   90817031	-0.00253	-0.04368	0.61388	0.78818	0.00000	0.00000	0.00000	0.64524	-0.59376	9.87548
 1620118048	  207817031	-0.00546	-0.04784	0.61384	0.78795	0.00000	0.00000	0.00000	0.63327	-0.61770	9.85394
 1620118048	  315817031	-0.00282	-0.04252	0.61393	0.78820	0.00426	0.00000	0.00000	0.63925	-0.60573	9.89284
 1620118048	  421817031	-0.00501	-0.04383	0.61396	0.78810	0.00000	0.00000	0.00000	0.62309	-0.61232	9.88326
 1620118048	  532817031	-0.00308	-0.04207	0.61395	0.78821	0.00000	0.00000	0.00000	0.63147	-0.61351	9.88207
 1620118048	  614817031	-0.00340	-0.04513	0.61387	0.78810	0.00000	0.00000	0.00000	0.63865	-0.60094	9.87608
 1620118048	  725817031	-0.00490	-0.04432	0.61394	0.78808	0.00000	0.00000	0.00000	0.62549	-0.61292	9.87429
 1620118048	  798817031	-0.00500	-0.04400	0.61396	0.78809	0.00000	0.00000	0.00000	0.63147	-0.62070	9.90002
 1620118048	  937817031	-0.00587	-0.04673	0.61390	0.78797	0.00000	0.00000	0.00000	0.63386	-0.62369	9.89464
 1620118048	  992817031	-0.00260	-0.04163	0.61396	0.78823	0.00000	0.00000	0.00000	0.63865	-0.61890	9.85573
 1620118049	  125817031	-0.00634	-0.04503	0.61398	0.78801	0.00000	0.00000	0.00000	0.61711	-0.62070	9.84675
 1620118049	  209817031	-0.00433	-0.04401	0.61395	0.78810	0.00000	0.00000	0.00000	0.63506	-0.59915	9.88207
 1620118049	  326817031	-0.00208	-0.04434	0.61386	0.78816	0.00000	0.00000	0.00000	0.64584	-0.61292	9.88805
 1620118049	  427817031	-0.00445	-0.04489	0.61392	0.78807	0.00000	0.00000	0.00000	0.64643	-0.61531	9.86052
 1620118049	  522817031	-0.00542	-0.04470	0.61396	0.78805	0.00000	0.00000	0.00000	0.63686	-0.60454	9.87070
 1620118049	  607817031	-0.00386	-0.04440	0.61392	0.78811	0.00000	0.00000	0.00000	0.64883	-0.60513	9.88326
 1620118049	  725817031	-0.00672	-0.04415	0.61401	0.78802	0.00000	0.00000	0.00000	0.62369	-0.62788	9.89763
 1620118049	  815817031	-0.00497	-0.04432	0.61395	0.78807	0.00000	0.00000	0.00000	0.63087	-0.62309	9.87788
 1620118049	  959817031	-0.00233	-0.04638	0.61380	0.78809	0.00000	0.00000	0.00000	0.63865	-0.61471	9.87189
 1620118050	    9817031	-0.00559	-0.04109	0.61406	0.78816	0.00000	0.00000	0.00000	0.64105	-0.60154	9.89524
 1620118050	  105817031	-0.00535	-0.04452	0.61395	0.78807	0.00000	0.00000	0.00000	0.63626	-0.61770	9.89045
 1620118050	  210817031	-0.00655	-0.04642	0.61392	0.78797	0.00000	0.00000	0.00000	0.63087	-0.61711	9.86471
 1620118050	  306817031	-0.00537	-0.04470	0.61394	0.78806	0.00000	0.00000	0.00000	0.62788	-0.62130	9.86830
 1620118050	  400817031	-0.00489	-0.04467	0.61393	0.78808	0.00000	-0.00426	0.00000	0.63805	-0.61770	9.86650
 1620118050	  557626083	-0.00487	-0.04466	0.61393	0.78808	0.00000	0.00000	0.00000	0.64643	-0.60992	9.86770
 1620118050	  639626083	-0.00450	-0.04487	0.61391	0.78808	0.00000	0.00000	0.00000	0.64703	-0.60573	9.88566
 1620118050	  763626083	-0.00391	-0.04555	0.61387	0.78808	0.00000	0.00000	0.00000	0.63566	-0.60932	9.87608
 1620118050	  845626083	-0.00438	-0.04378	0.61394	0.78812	0.00000	0.00000	0.00000	0.64584	-0.59436	9.88326
 1620118051	   14626083	-0.00565	-0.04165	0.61404	0.78815	0.00000	0.00000	0.00000	0.63985	-0.61052	9.90661
 1620118051	   58626083	-0.00346	-0.04965	0.61372	0.78795	0.00000	0.00000	0.00000	0.64524	-0.62668	9.87189
 1620118051	  125626083	-0.00564	-0.04446	0.61396	0.78806	0.00426	0.00000	0.00000	0.63686	-0.61950	9.92516
 1620118051	  237626083	-0.00675	-0.04417	0.61402	0.78802	0.00000	0.00000	0.00000	0.63386	-0.62130	9.88626
 1620118051	  335626083	-0.00448	-0.04457	0.61393	0.78808	0.00000	0.00000	0.00000	0.64224	-0.62489	9.88626
 1620118051	  445626083	-0.00471	-0.04198	0.61402	0.78816	0.00000	0.00000	0.00000	0.63566	-0.61770	9.87309
 1620118051	  552626083	-0.00391	-0.04496	0.61390	0.78809	0.00000	0.00000	0.00000	0.65122	-0.60693	9.89164
 1620118051	  669626083	-0.00514	-0.04865	0.61381	0.78793	-0.00426	0.00000	0.00000	0.63267	-0.63207	9.85334
 1620118051	  741626083	-0.00369	-0.04313	0.61394	0.78816	0.00000	0.00000	0.00000	0.65182	-0.61172	9.86710
 1620118051	  841626083	-0.00503	-0.04414	0.61395	0.78809	0.00000	0.00000	0.00000	0.63506	-0.62189	9.86950
 1620118052	    8626083	-0.00736	-0.05260	0.61373	0.78772	0.00000	0.00000	0.00000	0.64524	-0.64643	9.87249
 1620118052	   56626083	-0.00596	-0.04798	0.61385	0.78793	0.00000	0.00000	0.00000	0.62489	-0.61591	9.85334
 1620118052	  140626083	-0.00478	-0.04511	0.61391	0.78807	0.00000	0.00000	0.00000	0.65302	-0.62189	9.85633
 1620118052	  254626083	-0.00518	-0.04326	0.61397	0.78812	-0.00532	0.00000	0.00000	0.64823	-0.61531	9.88745
 1620118052	  350626083	-0.00434	-0.04576	0.61386	0.78807	0.00532	0.00000	0.00000	0.60633	-0.65481	9.91439
 1620118052	  432626083	-0.00315	-0.04335	0.61390	0.78818	0.00000	0.00000	0.00000	0.64464	-0.56503	9.90661
 1620118052	  551626083	-0.00615	-0.04670	0.61387	0.78799	-0.01064	0.00426	0.00000	0.63027	-0.63207	9.85693
 1620118052	  644626083	-0.00612	-0.04533	0.61391	0.78805	0.00426	0.00000	0.00000	0.63327	-0.63087	9.86052
 1620118052	  740626083	-0.00427	-0.04428	0.61390	0.78812	0.00639	0.00000	0.00000	0.63087	-0.60094	9.85872
 1620118052	  856626083	-0.00665	-0.04435	0.61396	0.78806	-0.00851	0.00000	0.00000	0.63147	-0.63985	9.83658
 1620118052	  960475090	-0.00590	-0.04718	0.61384	0.78799	-0.00426	0.00000	0.00000	0.65302	-0.65062	9.90062
 1620118053	   20475090	-0.00374	-0.04430	0.61387	0.78815	0.00639	0.00000	0.00000	0.63746	-0.59795	9.84017
 1620118053	  142475090	-0.00507	-0.04410	0.61391	0.78812	-0.00745	0.00000	0.00000	0.62848	-0.61950	9.91678
 1620118053	  221475090	-0.00371	-0.04402	0.61387	0.78817	0.00000	0.00000	0.00000	0.62728	-0.63506	9.88386
 1620118053	  318475090	-0.00478	-0.04464	0.61391	0.78809	0.00851	-0.00426	0.00000	0.63805	-0.62968	9.89883
 1620118053	  432475090	-0.00709	-0.04388	0.61402	0.78803	0.00000	0.00000	0.00000	0.62429	-0.61711	9.88087
 1620118053	  516475090	-0.00522	-0.04257	0.61398	0.78815	0.00000	0.00000	0.00000	0.62908	-0.63207	9.89883
 1620118053	  619475090	-0.00375	-0.04374	0.61391	0.78815	0.00958	0.00000	0.00000	0.66499	-0.61830	9.88745
 1620118053	  727475090	-0.00552	-0.04331	0.61399	0.78810	0.00000	0.00000	0.00000	0.63207	-0.61890	9.85932
 1620118053	  838475090	-0.00408	-0.04435	0.61391	0.78812	0.00000	0.00000	0.00000	0.64284	-0.60573	9.88027
 1620118054	  306475090	-0.00552	-0.04546	0.61388	0.78806	0.00426	0.00000	0.00000	0.63865	-0.62668	9.88805
 1620118054	  312475090	0.02684	-0.01812	0.61243	0.78986	0.00000	0.00000	-0.00426	0.63925	-0.60334	9.87249
 1620118054	  332475090	0.02566	-0.01910	0.61245	0.78985	-0.00426	0.00000	0.00000	0.64284	-0.61471	9.91618
 1620118054	  416475090	0.01873	-0.02472	0.61248	0.78987	0.00000	0.00000	-0.00639	0.62908	-0.61890	9.89464
 1620118054	  519475090	0.01075	-0.03118	0.61247	0.78980	0.00000	0.00000	-0.00532	0.62668	-0.60753	9.88686
 1620118054	  633475090	0.00246	-0.03814	0.61236	0.78965	-0.00426	0.00000	-0.00639	0.62549	-0.60573	9.86591
 1620118054	  727475090	-0.00466	-0.04384	0.61225	0.78943	0.00532	-0.00426	-0.00426	0.62968	-0.60094	9.82940
 1620118054	  857475090	-0.00621	-0.04317	0.61203	0.78963	0.00000	0.00000	-0.00532	0.64284	-0.60573	9.81084
 1620118055	   16475090	0.00651	-0.05003	0.61099	0.79002	0.00000	0.00000	-0.00639	0.64524	-0.59556	9.86172
 1620118055	   48475090	0.00323	-0.04805	0.61107	0.79011	0.00000	0.00000	-0.00851	0.64284	-0.59077	9.88027
 1620118055	   81475090	0.00024	-0.04672	0.61114	0.79014	0.00000	0.00000	-0.00532	0.65062	-0.62010	9.91918
 1620118055	  220475090	-0.00483	-0.04443	0.61104	0.79033	0.00000	0.00000	-0.00639	0.63865	-0.61172	9.85573
 1620118055	  320475090	-0.00557	-0.04572	0.61079	0.79045	0.00000	0.00000	-0.00426	0.65422	-0.60513	9.84436
 1620118055	  420475090	-0.00518	-0.04365	0.61066	0.79066	0.00000	0.00000	-0.00426	0.63087	-0.59735	9.85034
 1620118055	  582478006	-0.00775	-0.04331	0.61051	0.79078	0.00000	0.00000	-0.00426	0.62010	-0.62010	9.87010
 1620118055	  652478006	-0.00523	-0.04577	0.61030	0.79082	0.00000	0.00000	0.00000	0.64404	-0.61651	9.91199
 1620118055	  751478006	-0.00392	-0.04385	0.61028	0.79095	0.00000	0.00000	0.00000	0.64045	-0.59376	9.86291
 1620118055	  865478006	-0.00490	-0.04492	0.61028	0.79089	0.00000	0.00000	0.00000	0.64524	-0.62070	9.88805
 1620118056	   26478006	-0.00343	-0.04344	0.61028	0.79098	0.00000	0.00000	0.00000	0.63746	-0.58179	9.82102
 1620118056	   75478006	-0.00909	-0.04552	0.61038	0.79074	0.00000	0.00000	0.00000	0.64045	-0.62788	9.91858
 1620118056	  166478006	-0.00354	-0.04298	0.61029	0.79100	0.00000	0.00000	0.00000	0.63506	-0.61770	9.90721
 1620118056	  265478006	-0.00530	-0.04443	0.61030	0.79090	0.00000	0.00000	0.00000	0.62429	-0.61770	9.88686
 1620118056	  350478006	-0.00533	-0.04505	0.61029	0.79087	0.00000	0.00000	0.00000	0.64883	-0.61591	9.90960
 1620118056	  457478006	-0.00393	-0.04616	0.61022	0.79087	0.00000	-0.00426	0.00000	0.61112	-0.60513	9.88027
 1620118056	  558478006	-0.00487	-0.04397	0.61031	0.79092	0.00000	0.00000	0.00000	0.63267	-0.60992	9.86830
 1620118056	  645478006	-0.00481	-0.04565	0.61026	0.79086	0.00000	0.00000	0.00000	0.65182	-0.62249	9.87548
 1620118056	  773478006	-0.00357	-0.04393	0.61029	0.79094	0.00000	0.00000	0.00000	0.62728	-0.62010	9.81742
 1620118056	  875478006	-0.00489	-0.04516	0.61038	0.79080	0.00000	0.00000	0.00000	0.64643	-0.62189	9.86172
 1620118057	   62478006	-0.00601	-0.04299	0.61058	0.79076	0.00000	0.00000	0.00532	0.61830	-0.61770	9.87548
 1620118057	   94478006	0.00094	-0.05091	0.61043	0.79043	0.00000	0.00000	0.00639	0.62309	-0.60334	9.88446
 1620118057	  179478006	-0.00433	-0.04431	0.61104	0.79034	0.00000	0.00000	0.00639	0.61411	-0.61651	9.91020
 1620118057	  272478006	-0.00423	-0.04565	0.61124	0.79011	0.00000	0.00000	0.00639	0.66379	-0.62249	9.90361
 1620118057	  328478006	-0.00487	-0.04395	0.61146	0.79004	0.00000	0.00000	0.00745	0.63925	-0.61172	9.86890
 1620118057	  487478006	-0.00491	-0.04392	0.61190	0.78970	0.00000	0.00000	0.00851	0.63626	-0.59137	9.85094
 1620118057	  564478006	-0.00380	-0.04489	0.61207	0.78952	0.00000	0.00000	0.00745	0.62668	-0.62549	9.88985
 1620118057	  658478006	-0.00494	-0.04446	0.61242	0.78926	0.00000	0.00000	0.00745	0.63207	-0.60932	9.89105
 1620118057	  772478006	-0.00746	-0.04313	0.61292	0.78893	0.00000	-0.00426	0.00851	0.60992	-0.61531	9.89224
 1620118057	  874478006	-0.00522	-0.04451	0.61317	0.78868	0.00000	-0.00426	0.00958	0.62788	-0.61172	9.85932
 1620118058	   50568935	0.00234	-0.03614	0.61385	0.78858	0.00000	0.00000	0.00851	0.64165	-0.61591	9.86291
 1620118058	   75568935	0.00105	-0.03770	0.61394	0.78845	0.00000	0.00000	0.01064	0.65661	-0.61351	9.90900
 1620118058	  115568935	-0.00184	-0.04109	0.61411	0.78814	0.00000	0.00000	0.00958	0.63865	-0.61950	9.84496
 1620118058	  243568935	-0.00663	-0.04622	0.61457	0.78747	0.00000	0.00000	0.00958	0.65003	-0.60334	9.84496
 1620118058	  332568935	-0.00438	-0.04455	0.61488	0.78734	0.00000	0.00000	0.00958	0.64284	-0.60932	9.84855
 1620118058	  445568935	-0.00475	-0.04330	0.61536	0.78704	0.00000	0.00000	0.00958	0.62788	-0.60633	9.87728
 1620118058	  544568935	-0.00552	-0.04463	0.61572	0.78668	0.00000	0.00000	0.00851	0.62788	-0.62130	9.83478
 1620118058	  626568935	-0.00325	-0.04564	0.61589	0.78649	0.00000	0.00000	0.00851	0.66439	-0.61292	9.85453
 1620118058	  741568935	-0.00621	-0.04567	0.61638	0.78610	0.00000	0.00000	0.00851	0.63626	-0.61232	9.88805
 1620118058	  838568935	-0.00534	-0.04488	0.61668	0.78591	0.00000	0.00000	0.00745	0.63207	-0.63267	9.87429
 1620118059	   16568935	-0.00439	-0.04356	0.61693	0.78580	0.00000	0.00000	0.00639	0.62429	-0.60513	9.87249
 1620118059	   61568935	-0.00759	-0.04925	0.61719	0.78523	0.00000	0.00000	0.00639	0.63686	-0.63267	9.84675
 1620118059	  132568935	-0.00450	-0.04545	0.61742	0.78530	0.00000	0.00000	0.00639	0.65122	-0.61890	9.85753
 1620118059	  235568935	-0.00421	-0.04433	0.61767	0.78517	0.00000	-0.00426	0.00532	0.63925	-0.61770	9.88207
 1620118059	  344568935	-0.00545	-0.04475	0.61792	0.78495	0.00000	-0.00426	0.00000	0.62908	-0.61711	9.87967
 1620118059	  436568935	-0.00463	-0.04488	0.61799	0.78489	0.00000	0.00000	0.00426	0.64224	-0.63446	9.85034
 1620118059	  533568935	-0.00527	-0.04459	0.61809	0.78482	0.00000	-0.00426	0.00000	0.62608	-0.62489	9.82401
 1620118059	  652568935	-0.00508	-0.04490	0.61808	0.78481	0.00000	0.00000	0.00000	0.65841	-0.60394	9.87369
 1620118059	  742568935	-0.00443	-0.04416	0.61808	0.78486	0.00000	0.00000	0.00000	0.63386	-0.60992	9.89224
 1620118059	  850568935	-0.00279	-0.04676	0.61794	0.78482	0.00000	0.00000	0.00000	0.64165	-0.60932	9.86232
 1620118060	   18568935	-0.00296	-0.04693	0.61794	0.78481	0.00000	0.00000	0.00000	0.65362	-0.61232	9.85094
 1620118060	   45568935	-0.00828	-0.04032	0.61832	0.78485	0.00000	0.00000	0.00000	0.63506	-0.62908	9.85633
 1620118060	  145568935	-0.00549	-0.04445	0.61811	0.78481	0.00000	0.00000	0.00000	0.61232	-0.61591	9.90242
 1620118060	  266568935	-0.00171	-0.04428	0.61799	0.78493	0.00000	0.00000	0.00000	0.64584	-0.62968	9.87189
 1620118060	  341568935	-0.00608	-0.04261	0.61818	0.78485	0.00000	0.00000	0.00000	0.64284	-0.63506	9.89823
 1620118060	  442568935	-0.00538	-0.05070	0.61790	0.78460	0.00000	0.00000	0.00000	0.65182	-0.63207	9.86471
 1620118060	  549125913	-0.00491	-0.04471	0.61805	0.78484	0.00000	0.00000	-0.00426	0.63566	-0.62429	9.87967
 1620118060	  650125913	-0.00463	-0.04458	0.61788	0.78499	0.00000	0.00000	-0.00532	0.63985	-0.61531	9.85034
 1620118060	  759125913	-0.00492	-0.04643	0.61759	0.78511	0.00000	0.00000	-0.00639	0.63746	-0.63027	9.89344
 1620118060	  851125913	-0.00384	-0.04487	0.61739	0.78536	0.00000	0.00000	-0.00639	0.67038	-0.61292	9.89823
 1620118061	   72125913	-0.00433	-0.04476	0.61716	0.78554	0.00000	0.00000	-0.00639	0.64105	-0.61172	9.84735
 1620118061	   98125913	-0.01199	-0.03591	0.61724	0.78586	0.00000	0.00000	-0.00639	0.65422	-0.63925	9.88865
 1620118061	  154125913	-0.00843	-0.04017	0.61684	0.78601	0.00000	0.00000	-0.00851	0.63446	-0.62728	9.85992
 1620118061	  253125913	-0.00210	-0.04605	0.61613	0.78629	0.00000	0.00000	-0.00745	0.63386	-0.63446	9.86890
 1620118061	  353125913	-0.00461	-0.04559	0.61590	0.78648	0.00000	0.00000	-0.00851	0.65362	-0.62908	9.86830
 1620118061	  446125913	-0.00462	-0.04498	0.61560	0.78676	0.00000	0.00000	-0.00958	0.64703	-0.62369	9.88326
 1620118061	  558125913	-0.00520	-0.04708	0.61515	0.78698	0.00000	0.00000	-0.00958	0.64524	-0.61711	9.90840
 1620118061	  646125913	-0.00619	-0.04531	0.61492	0.78726	0.00000	0.00000	-0.00958	0.63327	-0.62728	9.86591
 1620118061	  744125913	-0.00464	-0.04460	0.61450	0.78764	0.00000	0.00000	-0.01064	0.63267	-0.62549	9.91080
 1620118061	  866125913	-0.00278	-0.04245	0.61402	0.78814	0.00000	0.00000	-0.01064	0.65062	-0.61172	9.88925
 1620118062	   59125913	-0.00552	-0.04657	0.61369	0.78815	0.00000	0.00000	-0.00958	0.64224	-0.62608	9.88745
 1620118062	   66125913	0.00138	-0.03618	0.61328	0.78903	0.00000	0.00000	-0.00958	0.64823	-0.61471	9.88326
 1620118062	  113125913	-0.00159	-0.03998	0.61309	0.78899	0.00000	0.00000	-0.01064	0.64284	-0.61052	9.90541
 1620118062	  256125913	-0.00504	-0.04334	0.61254	0.78923	0.00000	0.00000	-0.00851	0.62728	-0.61292	9.86591
 1620118062	  361125913	-0.00418	-0.04525	0.61208	0.78948	0.00000	0.00000	-0.01064	0.65541	-0.61531	9.85633
 1620118062	  472125913	-0.00684	-0.04235	0.61182	0.78983	0.00000	0.00000	-0.00958	0.64524	-0.60214	9.85753
 1620118062	  563125913	-0.00447	-0.04476	0.61131	0.79010	0.00000	0.00000	-0.00958	0.65721	-0.59855	9.87668
 1620118062	  653125913	-0.00363	-0.04468	0.61099	0.79036	0.00000	0.00000	-0.00851	0.65721	-0.60035	9.89105
 1620118062	  750125913	-0.00453	-0.04474	0.61065	0.79062	0.00000	0.00000	-0.00958	0.64464	-0.61172	9.84376
 1620118062	  834125913	-0.00466	-0.04536	0.61034	0.79082	0.00000	0.00000	-0.00851	0.64524	-0.62309	9.86531
 1620118063	    7950031	-0.00544	-0.04218	0.61016	0.79113	0.00000	0.00000	-0.00745	0.61890	-0.61830	9.87429
 1620118063	   51950031	-0.00433	-0.04779	0.60956	0.79128	0.00000	0.00426	-0.00639	0.64823	-0.64165	9.88326
 1620118063	  122950031	-0.00449	-0.04423	0.60948	0.79155	0.00000	0.00000	-0.00639	0.65900	-0.61112	9.87608
 1620118063	  250950031	-0.00234	-0.04507	0.60908	0.79182	0.00000	0.00000	-0.00532	0.64763	-0.60454	9.88087
 1620118063	  330950031	-0.00392	-0.04544	0.60895	0.79189	0.00000	0.00000	-0.00639	0.63207	-0.61651	9.86411
 1620118063	  426950031	-0.00435	-0.04417	0.60885	0.79204	0.00000	0.00000	-0.00426	0.64284	-0.59915	9.89224
 1620118063	  887950031	-0.00446	-0.04442	0.60867	0.79216	0.00000	0.00000	0.00000	0.65062	-0.60873	9.88626
 1620118065	  274950031	-0.00557	-0.04170	0.60879	0.79221	0.00000	-0.00426	0.00000	0.63865	-0.60513	9.88207
 1620118065	  446950031	-0.01480	-0.17296	0.59980	0.78109	0.00000	0.00000	0.00000	0.64344	-0.64045	9.90182
 1620118065	  483132940	-0.01332	-0.15443	0.60172	0.78352	-0.00426	0.00000	0.00000	0.63207	-0.60454	9.89404
 1620118065	  623132940	-0.01247	-0.14087	0.60317	0.78497	0.00000	0.00000	0.00426	0.62968	-0.60573	9.87488
 1620118065	  638132940	-0.01241	-0.13991	0.60326	0.78507	0.00000	0.00000	0.00000	0.62608	-0.61890	9.85274
 1620118065	  764132940	-0.01145	-0.12742	0.60453	0.78624	0.00000	0.00000	0.00426	0.66858	-0.60154	9.85633
 1620118065	  836132940	-0.01095	-0.12099	0.60516	0.78677	0.00000	0.00000	0.00532	0.64224	-0.59316	9.87249
 1620118065	  924132940	-0.01035	-0.11252	0.60587	0.78750	0.00000	0.00000	0.00000	0.65841	-0.62788	9.87548
 1620118066	   18132940	-0.00961	-0.10345	0.60657	0.78821	0.00000	0.00000	0.00000	0.64943	-0.61112	9.88087
 1620118066	   84132940	-0.00897	-0.09656	0.60699	0.78876	0.00000	-0.00426	0.00000	0.64105	-0.60214	9.87548
 1620118066	  238132940	-0.00781	-0.08155	0.60785	0.78981	0.00000	0.00000	0.00426	0.63386	-0.61411	9.85394
 1620118066	  428132940	-0.00618	-0.06345	0.60867	0.79085	0.00000	0.00000	0.00000	0.65242	-0.61172	9.89703
 1620118066	  453132940	-0.00586	-0.06082	0.60882	0.79095	0.00000	0.00000	0.00426	0.63985	-0.59496	9.86950
 1620118066	  527132940	-0.00555	-0.05308	0.60923	0.79119	0.00000	0.00000	0.00426	0.62189	-0.61711	9.85813
 1620118066	  630132940	-0.00493	-0.04413	0.60969	0.79139	0.00426	0.00000	0.00426	0.63746	-0.61411	9.87908
 1620118066	  740132940	-0.00669	-0.04663	0.60987	0.79109	0.00000	0.00000	0.00532	0.63327	-0.60573	9.84376
 1620118066	  824132940	-0.00498	-0.04646	0.60999	0.79103	0.00000	0.00000	0.00532	0.66918	-0.63925	9.89045
 1620118066	  919132940	-0.00253	-0.04219	0.61022	0.79109	0.00000	0.00000	0.00426	0.63087	-0.60454	9.82640
 1620118067	   37132940	-0.00530	-0.04494	0.61047	0.79074	0.00000	0.00000	0.00532	0.64045	-0.61651	9.86291
 1620118067	  146132940	-0.00689	-0.04608	0.61067	0.79051	0.00000	0.00000	0.00426	0.63506	-0.63506	9.91319
 1620118067	  241132940	-0.00495	-0.04479	0.61085	0.79046	0.00000	-0.00426	0.00426	0.63686	-0.63446	9.90960
 1620118067	  398132940	-0.00463	-0.04278	0.61098	0.79047	0.00000	0.00000	0.00532	0.62549	-0.59496	9.87668
 1620118067	  442132940	-0.00455	-0.05024	0.61101	0.79001	0.00000	0.00000	0.00426	0.65302	-0.61651	9.89105
 1620118067	  523132940	-0.00565	-0.04512	0.61136	0.79004	0.00000	0.00000	0.00426	0.61770	-0.60154	9.87488
 1620118067	  635132940	-0.00301	-0.04545	0.61141	0.79000	0.00000	-0.00426	0.00426	0.64823	-0.61471	9.89045
 1620118067	  722132940	-0.00136	-0.04740	0.61140	0.78989	0.00000	0.00000	0.00426	0.64703	-0.61172	9.86770
 1620118067	  833132940	-0.00566	-0.04423	0.61179	0.78976	0.00000	0.00000	0.00532	0.62848	-0.62189	9.85573
 1620118067	  956132940	-0.00692	-0.04142	0.61200	0.78973	0.00000	0.00000	0.00000	0.62010	-0.61830	9.86770
 1620118068	   50035999	-0.00570	-0.04611	0.61182	0.78962	0.00000	0.00000	0.00000	0.64464	-0.62968	9.87608
 1620118068	  159035999	-0.00480	-0.04458	0.61200	0.78958	0.00000	0.00000	0.00426	0.64045	-0.61651	9.86471
 1620118068	  261035999	-0.00273	-0.04325	0.61203	0.78964	0.00000	0.00000	0.00000	0.65601	-0.62429	9.84675
 1620118068	  422035999	-0.00127	-0.04435	0.61195	0.78964	0.00000	0.00000	0.00000	0.65122	-0.59735	9.88985
 1620118068	  466035999	-0.00724	-0.04509	0.61213	0.78943	0.00000	0.00000	0.00000	0.62489	-0.63327	9.85992
 1620118068	  545035999	-0.00075	-0.04563	0.61190	0.78961	0.00000	0.00000	0.00000	0.65422	-0.61292	9.89164
 1620118068	  657035999	-0.00672	-0.04490	0.61212	0.78945	0.00000	0.00000	0.00000	0.65302	-0.61112	9.90062
 1620118068	  748035999	-0.00594	-0.04573	0.61207	0.78945	0.00000	0.00000	0.00000	0.63865	-0.63925	9.90242
 1620118068	  865035999	-0.00770	-0.04541	0.61213	0.78941	0.00000	0.00000	0.00000	0.62549	-0.63446	9.86830
 1620118068	  945035999	-0.00589	-0.04400	0.61212	0.78951	0.00000	0.00000	0.00000	0.63267	-0.61950	9.89105
 1620118069	   46035999	-0.00519	-0.04540	0.61206	0.78949	0.00000	0.00000	0.00000	0.64643	-0.62908	9.85034
 1620118069	  194035999	-0.00474	-0.04528	0.61205	0.78950	0.00000	0.00000	0.00000	0.62728	-0.62309	9.87908
 1620118069	  714035999	-0.00426	-0.08126	0.61051	0.78781	0.00000	0.00000	0.00000	0.64045	-0.60633	9.91559
 1620118069	  739035999	-0.00427	-0.07862	0.61065	0.78797	0.00000	0.00000	0.00000	0.63207	-0.58778	9.86650
 1620118069	  762035999	-0.00439	-0.07641	0.61077	0.78809	-0.00426	0.00000	0.00000	0.60214	-0.61591	9.82102
 1620118069	  852035999	-0.00469	-0.06771	0.61120	0.78855	0.00000	0.00000	0.00000	0.63865	-0.63327	9.83837
 1620118070	  218035999	-0.00469	-0.04483	0.61208	0.78950	0.00000	0.00000	0.00000	0.64524	-0.61830	9.87728
 1620118070	  269035999	-0.00434	-0.04488	0.61207	0.78951	-0.00532	-0.00426	0.00000	0.64763	-0.60274	9.84855
 1620118070	  449035999	0.00123	-0.03658	0.61211	0.78992	0.00000	-0.00426	0.00000	0.63626	-0.62489	9.88326
 1620118070	  487035999	-0.00074	-0.03919	0.61211	0.78979	0.00000	0.00000	0.00000	0.62788	-0.62848	9.89344
 1620118070	  534667984	-0.00498	-0.04380	0.61212	0.78953	0.00000	0.00000	0.00000	0.61591	-0.62309	9.84735
 1620118070	  647667984	-0.00591	-0.04432	0.61214	0.78948	0.00000	0.00000	0.00000	0.63446	-0.62608	9.85992
 1620118070	  742667984	-0.00463	-0.04417	0.61210	0.78953	0.00426	0.00000	0.00000	0.63686	-0.60932	9.84496
 1620118070	  811667984	-0.00521	-0.04435	0.61212	0.78950	0.00000	0.00000	0.00000	0.62908	-0.62489	9.85813
 1620118070	  968667984	-0.00500	-0.04442	0.61211	0.78950	0.00000	0.00000	0.00000	0.64703	-0.62369	9.88925
 1620118071	   40667984	-0.00580	-0.04311	0.61218	0.78952	0.00000	0.00000	0.00000	0.62788	-0.62130	9.89284
 1620118071	  131667984	-0.00511	-0.04465	0.61208	0.78951	0.00000	0.00000	-0.00426	0.64703	-0.64105	9.94551
 1620118071	  265667984	-0.00606	-0.04441	0.61204	0.78955	0.00000	0.00000	-0.00426	0.61950	-0.63207	9.84735
 1620118071	  413667984	-0.00758	-0.04585	0.61195	0.78952	-0.00426	0.00000	-0.00426	0.63087	-0.63087	9.87249
 1620118071	  444667984	-0.00160	-0.04225	0.61162	0.79001	0.00426	0.00000	0.00000	0.63147	-0.60334	9.85872
 1620118071	  539667984	-0.00438	-0.04529	0.61148	0.78995	0.00000	0.00000	-0.00426	0.65541	-0.61950	9.88865
 1620118071	  613667984	-0.00563	-0.04433	0.61142	0.79004	0.00000	0.00000	-0.00639	0.62848	-0.61950	9.89943
 1620118071	  772667984	-0.00411	-0.04375	0.61108	0.79034	0.00000	0.00000	-0.00532	0.63865	-0.60753	9.87728
 1620118071	  842667984	-0.00266	-0.04370	0.61089	0.79050	0.00000	0.00000	-0.00532	0.64224	-0.61591	9.87608
 1620118071	  953667984	-0.00465	-0.04491	0.61069	0.79058	-0.00426	0.00000	-0.00532	0.64703	-0.61711	9.84256
 1620118072	   27667984	-0.00556	-0.04462	0.61056	0.79069	0.00000	0.00000	-0.00639	0.62908	-0.61950	9.85932
 1620118072	  152667984	-0.00455	-0.04415	0.61026	0.79095	0.00000	0.00000	-0.00532	0.61950	-0.61950	9.88386
 1620118072	  271667984	-0.00680	-0.04526	0.61000	0.79107	0.00000	0.00000	-0.00639	0.62968	-0.63985	9.85813
 1620118072	  426667984	-0.00400	-0.04097	0.60991	0.79140	0.00000	0.00000	-0.00532	0.62968	-0.61651	9.87010
 1620118072	  447667984	-0.00553	-0.04815	0.60952	0.79129	0.00000	0.00000	-0.00426	0.63506	-0.60513	9.85274
 1620118072	  542667984	-0.00693	-0.04533	0.60948	0.79147	0.00000	0.00000	-0.00639	0.63027	-0.62668	9.87548
 1620118072	  644667984	-0.00570	-0.04491	0.60925	0.79168	0.00000	0.00000	-0.00532	0.62549	-0.60633	9.86650
 1620118072	  757667984	-0.00467	-0.04103	0.60913	0.79199	0.00000	0.00000	-0.00426	0.63566	-0.61531	9.90421
 1620118072	  840667984	-0.00642	-0.04250	0.60898	0.79201	0.00000	0.00000	-0.00532	0.62728	-0.62010	9.86710
 1620118072	  942667984	-0.00569	-0.04410	0.60873	0.79213	0.00000	0.00000	-0.00532	0.62249	-0.62189	9.88506
 1620118073	   29558986	-0.00455	-0.04511	0.60851	0.79224	0.00000	0.00000	-0.00532	0.64943	-0.61351	9.85573
 1620118073	  141558986	-0.00407	-0.04203	0.60837	0.79252	0.00000	0.00000	-0.00532	0.64524	-0.61890	9.86890
 1620118073	  235558986	-0.00636	-0.04410	0.60820	0.79253	0.00000	0.00000	-0.00426	0.60214	-0.63446	9.87488
 1620118073	  443558986	-0.00545	-0.04713	0.60796	0.79255	0.00000	0.00000	0.00000	0.64045	-0.60573	9.88207
 1620118073	  449558986	-0.00529	-0.03797	0.60822	0.79284	0.00000	0.00000	-0.00426	0.62968	-0.61591	9.88566
 1620118073	  539558986	-0.00513	-0.04657	0.60779	0.79271	0.00000	0.00000	-0.00532	0.63207	-0.61651	9.86890
 1620118073	  643558986	-0.00513	-0.04484	0.60779	0.79281	0.00000	0.00000	0.00000	0.63327	-0.60932	9.87010
 1620118073	  762558986	-0.00622	-0.04559	0.60776	0.79278	0.00000	0.00000	0.00000	0.64045	-0.62070	9.85094
 1620118073	  814558986	-0.00522	-0.04479	0.60775	0.79284	0.00000	0.00000	0.00000	0.65541	-0.61890	9.90242
 1620118073	  967558986	-0.00945	-0.04307	0.60793	0.79276	0.00000	0.00000	0.00000	0.62549	-0.61172	9.90122
 1620118074	   47558986	-0.00450	-0.04490	0.60773	0.79286	0.00000	0.00000	0.00000	0.65182	-0.61172	9.88027
 1620118074	  136558986	-0.00506	-0.04440	0.60776	0.79286	0.00000	0.00000	0.00000	0.63805	-0.61471	9.89105
 1620118074	  236558986	-0.00502	-0.04435	0.60776	0.79286	0.00000	0.00000	0.00000	0.63925	-0.61471	9.86890
 1620118074	  349558986	-0.00668	-0.04476	0.60780	0.79280	0.00000	0.00000	0.00000	0.63267	-0.62070	9.84556
 1620118074	  458558986	0.00278	-0.04702	0.60740	0.79299	0.00000	0.00000	0.00000	0.62309	-0.62309	9.89703
 1620118074	  544558986	-0.00492	-0.04510	0.60773	0.79284	0.00000	0.00000	0.00000	0.63985	-0.61830	9.88446
 1620118074	  635558986	-0.00513	-0.04522	0.60773	0.79283	0.00000	0.00000	0.00000	0.64643	-0.62489	9.87070
 1620118074	  740558986	-0.00658	-0.04484	0.60780	0.79279	0.00000	0.00000	0.00000	0.63327	-0.63207	9.87788
 1620118074	  840558986	-0.00466	-0.04409	0.60776	0.79288	0.00000	-0.00426	0.00000	0.63746	-0.61292	9.89224
 1620118074	  960558986	-0.00453	-0.04176	0.60783	0.79295	0.00000	0.00000	0.00000	0.62429	-0.62010	9.86890
 1620118075	   51558986	-0.00576	-0.04446	0.60778	0.79283	0.00000	0.00000	0.00000	0.62608	-0.62489	9.85573
 1620118075	  140558986	-0.00523	-0.04439	0.60777	0.79285	0.00000	0.00000	0.00000	0.63805	-0.62249	9.87608
 1620118075	  263558986	-0.00483	-0.04399	0.60783	0.79283	0.00000	0.00000	0.00000	0.64703	-0.61471	9.88207
 1620118075	  465558986	-0.00640	-0.04470	0.60791	0.79271	0.00000	0.00000	0.00000	0.63686	-0.62728	9.89344
 1620118075	  471558986	-0.00054	-0.03595	0.60798	0.79313	0.00000	0.00000	0.00000	0.64224	-0.61711	9.88087
 1620118075	  530154949	-0.00365	-0.04167	0.60793	0.79288	0.00000	0.00000	0.00000	0.63446	-0.61890	9.84675
 1620118075	  632154949	-0.00541	-0.04492	0.60800	0.79264	0.00000	0.00000	0.00426	0.64045	-0.62728	9.86351
 1620118075	  747154949	-0.00405	-0.04367	0.60823	0.79254	0.00000	0.00000	0.00639	0.62908	-0.61770	9.87788
 1620118075	  829154949	-0.00541	-0.04290	0.60843	0.79243	0.00000	0.00000	0.00532	0.63327	-0.61052	9.90361
 1620118075	  935154949	-0.00585	-0.04438	0.60859	0.79221	0.00000	0.00000	0.00532	0.61950	-0.61770	9.84855
 1620118076	   43154949	-0.00455	-0.04229	0.60880	0.79217	0.00000	0.00000	0.00426	0.62788	-0.63267	9.87548
 1620118076	  121154949	-0.00432	-0.04624	0.60881	0.79195	0.00000	-0.00426	0.00426	0.64045	-0.62668	9.87548
 1620118076	  268154949	-0.00479	-0.04154	0.60920	0.79191	0.00000	0.00000	0.00426	0.63087	-0.62249	9.87369
 1620118076	  331154949	-0.00277	-0.04234	0.60917	0.79190	0.00000	-0.00426	0.00000	0.63446	-0.62070	9.84975
 1620118076	  457154949	-0.01347	-0.04318	0.60946	0.79152	0.00000	0.00000	0.00426	0.62788	-0.61411	9.88686
 1620118076	  543154949	-0.00523	-0.04479	0.60931	0.79164	0.00000	0.00000	0.00426	0.64344	-0.61531	9.84915
 1620118076	  644154949	-0.00623	-0.04457	0.60949	0.79151	0.00000	0.00000	0.00532	0.60633	-0.63087	9.87908
 1620118076	  720154949	-0.00522	-0.04357	0.60953	0.79154	0.00000	0.00000	0.00000	0.63327	-0.62130	9.86650
 1620118076	  839154949	-0.00180	-0.04483	0.60937	0.79161	0.00000	0.00000	0.00000	0.63985	-0.62728	9.87967
 1620118076	  936154949	-0.00570	-0.04395	0.60956	0.79150	0.00000	0.00000	0.00000	0.62309	-0.59436	9.85274
 1620118077	   23154949	-0.00521	-0.04479	0.60951	0.79149	0.00000	0.00000	0.00000	0.65003	-0.62249	9.87788
 1620118077	  136154949	-0.00741	-0.04133	0.60969	0.79152	0.00000	0.00000	0.00000	0.62249	-0.61292	9.89883
 1620118077	  235154949	-0.00473	-0.04537	0.60948	0.79149	0.00000	0.00000	0.00000	0.65242	-0.62489	9.86950
 1620118077	  343154949	-0.00316	-0.04517	0.60943	0.79154	0.00000	0.00000	0.00000	0.63925	-0.59735	9.89344
 1620118077	  459154949	-0.01046	-0.04649	0.60962	0.79125	0.00000	0.00000	0.00000	0.61172	-0.61950	9.84316
 1620118077	  548154949	-0.00465	-0.04395	0.60953	0.79152	0.00426	-0.00426	0.00000	0.63506	-0.60513	9.90242
 1620118077	  635154949	-0.00523	-0.04486	0.60953	0.79147	0.00000	-0.00639	0.00000	0.63746	-0.61890	9.85813
 1620118077	  746154949	-0.00427	-0.04229	0.60959	0.79157	0.00000	-0.00426	0.00000	0.62249	-0.60693	9.89643
 1620118077	  833154949	-0.00430	-0.04360	0.60956	0.79153	0.00000	-0.00426	0.00000	0.62908	-0.61711	9.86770
 1620118077	  935154949	-0.00502	-0.04447	0.60956	0.79147	0.00000	0.00000	0.00000	0.63386	-0.62130	9.84615
 1620118078	   78832050	-0.00763	-0.04521	0.60962	0.79136	0.00000	0.00000	0.00000	0.62968	-0.65302	9.88506
 1620118078	  171832050	-0.00598	-0.04488	0.60958	0.79143	0.00426	0.00000	0.00000	0.66858	-0.61232	9.87010
 1620118078	  268832050	-0.00438	-0.04459	0.60954	0.79149	0.00000	0.00000	0.00000	0.65062	-0.60693	9.87848
 1620118078	  353832050	-0.00538	-0.04454	0.60957	0.79146	0.00000	0.00000	0.00000	0.63506	-0.61950	9.85094
 1620118078	  477832050	0.00013	-0.04367	0.60941	0.79165	0.00000	0.00000	0.00000	0.61651	-0.60573	9.82760
 1620118078	  543832050	-0.00462	-0.04501	0.60953	0.79147	0.00000	0.00000	0.00000	0.64524	-0.62249	9.88566
 1620118078	  666832050	-0.00586	-0.04449	0.60958	0.79145	-0.00532	0.00000	0.00000	0.63087	-0.62968	9.90062
 1620118078	  794832050	-0.00856	-0.04399	0.60968	0.79138	0.00000	0.00000	0.00000	0.62549	-0.62668	9.87908
 1620118078	  865832050	-0.00330	-0.04418	0.60950	0.79154	0.00000	0.00000	0.00000	0.65003	-0.61770	9.88566
 1620118078	  912832050	-0.00569	-0.04439	0.60957	0.79146	0.00000	0.00000	0.00000	0.62608	-0.63207	9.86950
 1620118079	   64832050	-0.00516	-0.04356	0.60959	0.79150	0.00000	0.00000	0.00000	0.63267	-0.61172	9.90421
 1620118079	  154832050	-0.00491	-0.04440	0.60954	0.79149	0.00000	-0.00426	0.00000	0.64584	-0.61052	9.87848
 1620118079	  270832050	-0.00568	-0.04319	0.60944	0.79163	-0.00426	0.00000	-0.00426	0.63147	-0.61471	9.87728
 1620118079	  366832050	-0.00457	-0.04434	0.60936	0.79163	0.00000	0.00000	0.00000	0.63087	-0.63207	9.87129
 1620118079	  489832050	-0.00911	-0.03694	0.60972	0.79170	0.00000	0.00000	0.00000	0.63925	-0.59616	9.88686
 1620118079	  564832050	-0.00573	-0.04304	0.60944	0.79163	0.00000	0.00000	0.00000	0.64823	-0.59975	9.85274
 1620118079	  658832050	-0.00446	-0.04447	0.60935	0.79163	0.00000	0.00000	0.00000	0.64524	-0.60873	9.89464
 1620118079	  753832050	-0.00515	-0.04436	0.60937	0.79162	0.00000	0.00000	0.00000	0.63267	-0.61651	9.86172
 1620118079	  871832050	-0.00522	-0.04594	0.60932	0.79157	0.00000	0.00000	0.00000	0.65541	-0.62968	9.84975
 1620118079	  967832050	-0.00508	-0.04454	0.60935	0.79163	0.00000	0.00000	0.00000	0.62489	-0.61890	9.87548
 1620118080	   75832050	-0.00378	-0.04543	0.60921	0.79170	0.00000	0.00000	0.00000	0.64524	-0.61830	9.88087
 1620118080	  163832050	-0.00609	-0.04196	0.60939	0.79173	0.00000	0.00000	0.00000	0.62010	-0.62130	9.87189
 1620118080	  272832050	-0.00566	-0.04454	0.60930	0.79167	0.00000	0.00000	0.00000	0.62908	-0.62489	9.86351
 1620118080	  347832050	-0.00463	-0.04379	0.60929	0.79172	0.00000	0.00000	0.00000	0.63087	-0.60035	9.87608
 1620118080	  503832050	-0.00323	-0.04310	0.60926	0.79178	0.00000	0.00000	0.00000	0.63087	-0.59675	9.86411
 1620118080	  541023914	-0.00911	-0.04667	0.60933	0.79148	0.00000	0.00000	0.00000	0.64643	-0.61770	9.87548
 1620118080	  637023914	-0.00524	-0.04499	0.60924	0.79168	0.00000	-0.00426	0.00000	0.64643	-0.63087	9.87309
 1620118080	  752023914	-0.00427	-0.04527	0.60921	0.79170	0.00000	0.00000	0.00000	0.63147	-0.61232	9.88626
 1620118080	  858023914	-0.00528	-0.04435	0.60923	0.79173	0.00000	0.00000	0.00000	0.62608	-0.62010	9.90481
 1620118080	  957023914	-0.00678	-0.04152	0.60936	0.79177	0.00000	0.00000	0.00000	0.62309	-0.62309	9.87848
 1620118081	   33023914	-0.00561	-0.04274	0.60925	0.79180	-0.00532	0.00000	0.00000	0.62848	-0.62249	9.83777
 1620118081	  116023914	-0.00887	-0.04149	0.60938	0.79174	-0.00639	0.00000	0.00000	0.61711	-0.61830	9.88985
 1620118081	  254023914	-0.00501	-0.04499	0.60914	0.79177	0.00532	0.00532	0.00000	0.61172	-0.60454	9.81204
 1620118081	  365023914	-0.00362	-0.04053	0.60912	0.79203	-0.00745	0.00426	0.00000	0.61052	-0.58299	9.84137
 1620118081	  501023914	-0.01164	-0.05133	0.60900	0.79142	0.00000	0.00000	0.00000	0.62668	-0.65242	9.87309
 1620118081	  559023914	-0.00759	-0.04681	0.60905	0.79171	0.00745	0.00000	0.00000	0.64105	-0.59436	9.83957
 1620118081	  645023914	-0.00362	-0.04503	0.60899	0.79189	0.00000	0.00000	0.00000	0.65242	-0.60094	9.83059
 1620118081	  747023914	-0.00655	-0.04419	0.60909	0.79184	0.00000	0.00000	0.00000	0.62788	-0.65362	9.84556
 1620118081	  848023914	-0.00495	-0.04497	0.60902	0.79186	0.00958	0.00000	0.00000	0.64943	-0.63985	9.85872
 1620118081	  909023914	-0.00416	-0.04217	0.60910	0.79196	0.00000	-0.00426	0.00426	0.60454	-0.55905	9.85394
 1620118082	   31023914	-0.00441	-0.04687	0.60903	0.79174	0.00000	-0.00532	0.00426	0.64584	-0.60274	9.81802
 1620118082	  153023914	-0.00390	-0.04327	0.60933	0.79172	0.00000	-0.00958	0.00532	0.61890	-0.60334	9.89284
 1620118082	  248023914	-0.00317	-0.04509	0.60941	0.79156	0.00000	-0.00532	0.00532	0.66140	-0.59556	9.93354
 1620118082	  378023914	-0.00639	-0.04753	0.60969	0.79119	0.00000	-0.00639	0.00532	0.64224	-0.66439	9.82940
 1620118082	  476023914	0.00208	-0.04292	0.60984	0.79135	0.00426	-0.00532	0.00745	0.66439	-0.61711	9.81623
 1620118082	  542023914	-0.00416	-0.04288	0.61026	0.79102	0.00000	0.00000	0.00745	0.62668	-0.59616	9.88027
 1620118082	  654023914	-0.00599	-0.04664	0.61048	0.79063	-0.00532	0.00000	0.00745	0.65661	-0.65661	9.84196
 1620118082	  761023914	-0.00627	-0.04235	0.61094	0.79051	0.00851	0.00000	0.00745	0.60693	-0.61770	9.82940
 1620118082	  852023914	-0.00315	-0.04431	0.61104	0.79035	0.00000	0.00426	0.00745	0.66020	-0.58598	9.86710
 1620118082	  964023914	-0.00668	-0.04281	0.61149	0.79006	-0.00532	0.00532	0.00745	0.60633	-0.62309	9.86710
 1620118083	   51023914	-0.00358	-0.04551	0.61153	0.78990	0.00426	0.00000	0.00745	0.65781	-0.63386	9.84675
 1620118083	  214444061	-0.00629	-0.04308	0.61206	0.78961	-0.00639	0.00000	0.00639	0.62369	-0.59017	9.93594
 1620118083	  251444061	-0.00571	-0.04479	0.61205	0.78952	-0.01171	0.00000	0.00639	0.62848	-0.62130	9.83239
 1620118083	  367444061	-0.00470	-0.04639	0.61222	0.78931	0.00000	0.00000	0.00532	0.64823	-0.64643	9.86112
 1620118083	  522444061	-0.00238	-0.04337	0.61230	0.78942	0.00532	0.00000	0.00000	0.63686	-0.59735	9.85932
 1620118083	  562444061	-0.00606	-0.04698	0.61236	0.78915	-0.00745	0.00000	0.00426	0.65122	-0.62608	9.89583
 1620118083	  669444061	-0.00577	-0.04441	0.61254	0.78916	0.00000	-0.00639	0.00000	0.61711	-0.63267	9.89224
 1620118083	  788444061	-0.00430	-0.04395	0.61254	0.78920	0.00000	-0.00532	0.00000	0.63805	-0.60573	9.89464
 1620118083	  864444061	-0.00603	-0.04659	0.61252	0.78905	-0.00532	0.00000	0.00000	0.63506	-0.60753	9.89763
 1620118083	  963444061	-0.00570	-0.04556	0.61253	0.78911	0.00000	0.00000	0.00000	0.64943	-0.63506	9.85932
 1620118084	   51444061	-0.00459	-0.04454	0.61254	0.78917	0.00745	0.00000	0.00000	0.64404	-0.61351	9.88626
 1620118084	  181444061	-0.00377	-0.04500	0.61250	0.78917	0.00000	0.00000	0.00000	0.63506	-0.60633	9.86291
 1620118084	  259444061	-0.00608	-0.04552	0.61256	0.78909	0.00000	0.00426	0.00000	0.63865	-0.64943	9.85034
 1620118084	  378444061	-0.00657	-0.04184	0.61269	0.78918	0.00639	0.00000	0.00000	0.62608	-0.61172	9.88147
 1620118084	  539444061	-0.00763	-0.04566	0.61261	0.78903	0.00000	0.00426	0.00000	0.62908	-0.60513	9.88386
 1620118084	  570444061	-0.00311	-0.04121	0.61260	0.78931	0.00000	0.00426	0.00000	0.62788	-0.63746	9.86650
 1620118084	  671444061	-0.00599	-0.04455	0.61259	0.78911	0.00532	0.00000	0.00000	0.64224	-0.61292	9.87608
 1620118084	  752444061	-0.00507	-0.04443	0.61257	0.78914	0.00000	0.00000	0.00000	0.63087	-0.62848	9.92097
 1620118084	  876444061	-0.00818	-0.04400	0.61269	0.78905	0.00000	0.00000	0.00000	0.63087	-0.62309	9.87429
 1620118084	  973444061	-0.00449	-0.04479	0.61244	0.78923	0.00000	0.00000	-0.00426	0.64943	-0.61471	9.86112
 1620118085	   56444061	-0.00418	-0.04432	0.61230	0.78937	0.00000	-0.00426	-0.00426	0.64763	-0.60274	9.89344
 1620118085	  172444061	-0.00633	-0.04766	0.61203	0.78937	-0.00532	-0.00426	-0.00532	0.65302	-0.62070	9.84077
 1620118085	  268444061	-0.00553	-0.04466	0.61190	0.78965	0.00000	-0.00532	-0.00639	0.63207	-0.62010	9.87668
 1620118085	  364444061	-0.00469	-0.04396	0.61169	0.78986	0.00000	0.00000	-0.00745	0.62848	-0.60334	9.86471
 1620118085	  533711107	-0.00852	-0.04481	0.61151	0.78992	-0.00532	0.00000	-0.00639	0.62549	-0.63805	9.87668
 1620118085	  545711107	0.00154	-0.04486	0.61085	0.79047	0.00000	0.00000	-0.00745	0.63267	-0.61890	9.86471
 1620118085	  631711107	-0.00429	-0.04119	0.61091	0.79061	0.00000	0.00000	-0.00745	0.64404	-0.58838	9.85094
 1620118085	  730711107	-0.00550	-0.04444	0.61057	0.79069	0.00000	0.00639	-0.00851	0.63746	-0.62429	9.87249
 1620118085	  853711107	-0.00557	-0.04152	0.61025	0.79109	0.00000	0.00532	-0.00851	0.63805	-0.61651	9.86351
 1620118085	  921711107	-0.00633	-0.04594	0.60994	0.79108	0.00000	0.00532	-0.00745	0.64045	-0.62309	9.84137
 1620118086	   31711107	-0.00570	-0.04546	0.60960	0.79138	-0.00426	0.00532	-0.00851	0.64344	-0.62908	9.83299
 1620118086	  108711107	-0.00591	-0.04441	0.60939	0.79160	0.00000	0.00000	-0.00745	0.61411	-0.62908	9.89344
 1620118086	  225711107	-0.00330	-0.04234	0.60901	0.79202	0.00000	0.00000	-0.00745	0.63746	-0.59855	9.88267
 1620118086	  329711107	-0.00394	-0.04479	0.60862	0.79218	0.00000	0.00000	-0.00851	0.63985	-0.61052	9.85753
 1620118086	  534711107	-0.00815	-0.04254	0.60849	0.79237	0.00000	0.00000	-0.00745	0.63865	-0.63267	9.88147
 1620118086	  546711107	0.00057	-0.04782	0.60766	0.79275	0.00000	-0.00532	-0.00958	0.64823	-0.60214	9.87129
 1620118086	  624711107	-0.00575	-0.04484	0.60771	0.79286	0.00000	-0.00426	-0.00745	0.63865	-0.63207	9.88087
 1620118086	  718711107	-0.00542	-0.04479	0.60743	0.79309	0.00000	-0.00532	-0.00851	0.63147	-0.61351	9.86232
 1620118086	  840711107	-0.00591	-0.04454	0.60708	0.79336	0.00000	-0.00426	-0.00639	0.65003	-0.61351	9.87309
 1620118086	  909711107	-0.00641	-0.04700	0.60685	0.79339	0.00000	0.00000	-0.00639	0.64763	-0.62429	9.89224
 1620118087	   12711107	-0.00776	-0.04053	0.60677	0.79380	0.00000	0.00000	-0.00639	0.62848	-0.61471	9.88147
 1620118087	  114711107	-0.00511	-0.04408	0.60631	0.79398	0.00000	0.00000	-0.00745	0.63327	-0.60154	9.87668
 1620118087	  237711107	-0.00549	-0.04325	0.60604	0.79424	0.00000	0.00426	-0.00426	0.62608	-0.61112	9.86830
 1620118087	  327711107	-0.00548	-0.04531	0.60579	0.79431	0.00000	0.00532	-0.00532	0.64643	-0.63027	9.84256
 1620118087	  408711107	-0.00545	-0.04433	0.60569	0.79444	0.00000	0.00426	-0.00426	0.61890	-0.61052	9.87369
 1620118087	  540711107	-0.00610	-0.04933	0.60547	0.79431	0.00000	0.00426	0.00000	0.64105	-0.60334	9.87429
 1620118087	  628711107	-0.00710	-0.04406	0.60562	0.79450	0.00000	0.00000	-0.00426	0.63327	-0.61591	9.87848
 1620118087	  725711107	-0.00537	-0.04496	0.60552	0.79454	0.00000	0.00000	0.00000	0.64524	-0.62728	9.87189
 1620118087	  809711107	-0.00519	-0.04429	0.60552	0.79458	-0.00426	0.00000	0.00000	0.63327	-0.60454	9.86052
 1620118087	  920711107	-0.00681	-0.04377	0.60558	0.79455	-0.00426	0.00000	0.00000	0.61411	-0.62908	9.87249
 1620118088	   17711107	-0.00565	-0.04588	0.60547	0.79452	0.00000	0.00000	0.00000	0.63746	-0.60214	9.88506
 1620118088	  161396055	-0.00698	-0.04627	0.60552	0.79445	0.00000	-0.00532	0.00000	0.64404	-0.60035	9.86232
 1620118088	  244396055	-0.00647	-0.04341	0.60561	0.79455	0.00000	-0.00426	0.00000	0.63506	-0.61351	9.85513
 1620118088	  345396055	-0.00547	-0.04437	0.60556	0.79454	0.00000	-0.00426	0.00000	0.63267	-0.61591	9.85932
 1620118088	  454396055	-0.00682	-0.04401	0.60562	0.79450	0.00000	0.00000	0.00000	0.63027	-0.61950	9.88446
 1620118088	  583396055	-0.00443	-0.05506	0.60516	0.79418	0.00000	0.00000	0.00000	0.64464	-0.62070	9.87309
 1620118088	  654396055	-0.00497	-0.04795	0.60543	0.79443	0.00000	0.00000	0.00000	0.62429	-0.60454	9.86112
 1620118088	  740396055	-0.00469	-0.04616	0.60553	0.79446	0.00000	0.00000	0.00426	0.63506	-0.61232	9.86052
 1620118088	  839396055	-0.00461	-0.04416	0.60559	0.79453	0.00000	0.00000	0.00000	0.63087	-0.63746	9.86531
 1620118088	  941396055	-0.00585	-0.04451	0.60571	0.79441	0.00426	0.00000	0.00426	0.63267	-0.62728	9.85214
 1620118089	   46396055	-0.00688	-0.04447	0.60585	0.79430	0.00000	0.00000	0.00000	0.65481	-0.58658	9.87010
 1620118089	  133396055	-0.00525	-0.04329	0.60596	0.79429	0.00000	0.00000	0.00532	0.61950	-0.60693	9.87129
 1620118089	  229396055	-0.00331	-0.04417	0.60605	0.79419	0.00000	0.00000	0.00426	0.63626	-0.63386	9.86172
 1620118089	  368396055	-0.00691	-0.04489	0.60644	0.79383	0.00000	0.00000	0.00532	0.66379	-0.61651	9.88207
 1620118089	  451396055	-0.00296	-0.04459	0.60650	0.79382	0.00000	-0.00426	0.00532	0.63865	-0.60753	9.86770
 1620118089	  578396055	-0.00444	-0.04456	0.60658	0.79375	0.00000	0.00000	0.00532	0.63386	-0.62309	9.87010
 1620118089	  660396055	-0.00589	-0.04849	0.60694	0.79324	0.00000	-0.00532	0.00639	0.63925	-0.60573	9.89344
 1620118089	  741396055	-0.00501	-0.04497	0.60720	0.79325	0.00000	-0.00532	0.00532	0.65541	-0.63147	9.88626
 1620118089	  844396055	-0.00542	-0.04508	0.60746	0.79305	0.00000	-0.00532	0.00639	0.65242	-0.62070	9.88267
 1620118089	  923396055	-0.00505	-0.04468	0.60768	0.79290	0.00000	0.00000	0.00745	0.63686	-0.61711	9.85992
 1620118089	  991396055	-0.00485	-0.04444	0.60786	0.79278	0.00000	0.00000	0.00639	0.65601	-0.60992	9.86650
 1620118090	  162396055	-0.00570	-0.04486	0.60832	0.79240	0.00000	0.00000	0.00639	0.63985	-0.62549	9.88925
 1620118090	  265396055	-0.00421	-0.04760	0.60847	0.79213	0.00000	0.00000	0.00745	0.63626	-0.60932	9.88326
 1620118090	  365396055	-0.00667	-0.04659	0.60889	0.79185	0.00000	0.00000	0.00745	0.63147	-0.61711	9.88506
 1620118090	  443396055	-0.00433	-0.04532	0.60904	0.79183	0.00000	0.00426	0.00639	0.64224	-0.62249	9.85633
 1620118090	  615820035	-0.00061	-0.04174	0.60944	0.79172	0.00000	0.00000	0.00639	0.62010	-0.61471	9.89105
 1620118090	  742820035	-0.00434	-0.04539	0.60976	0.79127	0.00000	0.00000	0.00532	0.64464	-0.63386	9.86650
 1620118091	   44820035	-0.00433	-0.04446	0.61043	0.79080	0.00000	-0.00426	0.00532	0.65422	-0.61651	9.87369
 1620118091	  148820035	-0.00514	-0.04450	0.61060	0.79066	0.00000	-0.00639	0.00000	0.64165	-0.61711	9.88925
 1620118091	  251820035	-0.00302	-0.04366	0.61068	0.79066	0.00000	-0.00532	0.00000	0.63386	-0.61351	9.86172
 1620118091	  357820035	-0.00617	-0.04437	0.61078	0.79053	0.00000	-0.00532	0.00000	0.61112	-0.64763	9.89045
 1620118091	  458820035	-0.00416	-0.04483	0.61071	0.79057	0.00000	0.00000	0.00000	0.64943	-0.61232	9.88865
 1620118091	  581820035	-0.00365	-0.04231	0.61077	0.79066	0.00000	-0.00426	0.00000	0.64823	-0.60334	9.88686
 1620118091	  612820035	-0.00570	-0.04951	0.61061	0.79036	0.00000	0.00000	0.00000	0.64823	-0.62489	9.88386
 1620118091	  766820035	-0.00695	-0.04660	0.61074	0.79042	0.00000	0.00000	0.00000	0.63985	-0.61651	9.89105
 1620118091	  842820035	-0.00553	-0.04300	0.61081	0.79058	0.00000	0.00000	0.00000	0.63805	-0.62010	9.87967
 1620118091	  939820035	-0.00571	-0.04491	0.61075	0.79052	0.00000	0.00000	0.00000	0.62788	-0.63446	9.86471
 1620118092	   59820035	-0.00309	-0.04716	0.61059	0.79053	0.00000	0.00532	0.00000	0.65960	-0.62309	9.88386
 1620118092	  142820035	-0.00567	-0.04630	0.61070	0.79048	0.00000	0.00000	0.00000	0.63327	-0.62668	9.81982
 1620118092	  242820035	-0.00458	-0.04442	0.61072	0.79058	0.00000	0.00000	0.00000	0.63925	-0.61950	9.87309
 1620118092	  394820035	-0.00516	-0.04473	0.61072	0.79056	0.00000	0.00000	-0.00426	0.64284	-0.62489	9.87668
 1620118092	  437820035	-0.00361	-0.04356	0.61063	0.79070	0.00000	0.00000	-0.00426	0.64643	-0.61471	9.87608
 1620118092	  464820035	-0.00510	-0.04519	0.61063	0.79060	0.00000	0.00000	0.00000	0.64763	-0.62668	9.84975
 1620118092	  782820035	0.00319	-0.06353	0.60920	0.79046	0.00000	-0.00532	-0.00532	0.62608	-0.62728	9.89883
 1620118092	  814820035	0.00191	-0.06065	0.60931	0.79060	0.00000	0.00000	-0.00426	0.64763	-0.60154	9.87728
 1620118092	  838820035	0.00079	-0.05806	0.60939	0.79073	0.00000	0.00000	-0.00532	0.63506	-0.61531	9.88087
 1620118092	  945820035	-0.00340	-0.04840	0.60967	0.79116	0.00000	0.00000	-0.00532	0.63446	-0.61950	9.87548
 1620118093	   24820035	-0.00528	-0.04469	0.60969	0.79136	0.00000	0.00000	-0.00639	0.64883	-0.63446	9.88326
 1620118093	  200532079	0.00276	-0.04250	0.60909	0.79195	0.00000	0.00000	-0.00639	0.64584	-0.61172	9.87010
 1620118093	  253532079	-0.00234	-0.04394	0.60910	0.79187	0.00000	0.00000	-0.00532	0.61531	-0.61411	9.89643
 1620118093	  357532079	-0.00516	-0.04415	0.60893	0.79197	0.00000	0.00000	-0.00745	0.62608	-0.61351	9.85154
 1620118093	  450532079	-0.00675	-0.04511	0.60867	0.79211	0.00000	0.00426	-0.00639	0.64284	-0.62728	9.89284
 1620118094	  385532079	-0.00299	-0.04689	0.60833	0.79229	0.00000	0.00426	-0.00639	0.66080	-0.61711	9.87728
 1620118094	  407532079	-0.05462	0.02122	0.60779	0.79193	0.00000	0.00000	-0.00745	0.64284	-0.61531	9.88985
 1620118094	  424532079	-0.05329	0.01946	0.60773	0.79211	0.00000	0.00000	-0.00851	0.63746	-0.59556	9.88326
 1620118095	   36532079	-0.01628	-0.02870	0.60508	0.79547	0.00000	0.00000	-0.00532	0.64643	-0.61411	9.85992
 1620118095	  136532079	-0.01033	-0.03715	0.60458	0.79561	0.00000	0.00000	-0.00426	0.64883	-0.60154	9.87548
 1620118095	  230532079	-0.00496	-0.04384	0.60413	0.79566	0.00000	0.00000	0.00000	0.64584	-0.59137	9.84316
 1620118095	  272532079	-0.00678	-0.04439	0.60417	0.79558	0.00000	0.00000	0.00000	0.62130	-0.61770	9.87608
 1620118095	  434532079	-0.00609	-0.04435	0.60415	0.79561	0.00000	0.00000	0.00000	0.62249	-0.61890	9.84795
 1620118095	  514532079	-0.00510	-0.04534	0.60409	0.79561	0.00000	0.00000	0.00000	0.65781	-0.62189	9.90721
 1620118096	  248014974	-0.02185	-0.00722	0.60535	0.79562	0.00000	0.00000	0.00000	0.65302	-0.60932	9.89583
 1620118096	  258014974	-0.02143	-0.00815	0.60533	0.79564	0.00000	-0.00426	0.00000	0.64224	-0.61112	9.86232
 1620118096	  273014974	-0.02102	-0.00910	0.60531	0.79565	0.00000	0.00000	0.00000	0.62249	-0.62130	9.86830
 1620118096	  333014974	-0.01851	-0.01461	0.60520	0.79572	0.00000	0.00000	0.00000	0.63686	-0.60334	9.84316
 1620118096	  489014974	-0.01189	-0.02922	0.60477	0.79577	0.00000	0.00000	0.00000	0.62908	-0.62070	9.86291
 1620118096	  571014974	-0.00862	-0.03672	0.60450	0.79571	0.00000	0.00000	0.00000	0.62549	-0.62010	9.90182
 1620118096	  659014974	-0.00501	-0.04411	0.60417	0.79561	0.00000	0.00000	0.00000	0.65481	-0.60573	9.86770
 1620118096	  793014974	-0.00776	-0.04330	0.60428	0.79555	0.00000	0.00426	0.00000	0.62728	-0.62848	9.87010
 1620118096	  910014974	-0.00592	-0.04408	0.60420	0.79559	0.00000	0.00000	0.00000	0.62968	-0.61651	9.87010
 1620118096	  969014974	-0.00362	-0.04833	0.60425	0.79531	0.00000	0.00000	0.00426	0.62968	-0.61351	9.86172
 1620118097	   63014974	-0.00653	-0.04379	0.60466	0.79525	0.00000	0.00000	0.00426	0.64584	-0.63087	9.87010
 1620118097	  170014974	-0.00498	-0.04411	0.60473	0.79519	0.00000	0.00000	0.00426	0.63865	-0.61471	9.86172
 1620118097	  245014974	-0.00528	-0.04481	0.60486	0.79505	0.00000	0.00000	0.00426	0.64165	-0.62070	9.88087
 1620118097	  357014974	-0.00466	-0.04311	0.60512	0.79495	0.00000	0.00000	0.00532	0.64165	-0.60035	9.89224
 1620118097	  467014974	-0.00550	-0.04483	0.60532	0.79469	0.00000	-0.00532	0.00426	0.63626	-0.62608	9.86112
 1620118097	  567014974	-0.00579	-0.04494	0.60559	0.79448	0.00000	-0.00532	0.00639	0.64105	-0.62968	9.87309
 1620118097	  668014974	-0.00480	-0.04183	0.60590	0.79442	0.00000	-0.00426	0.00532	0.62189	-0.60813	9.87608
 1620118097	  758014974	-0.00297	-0.04447	0.60597	0.79423	0.00000	-0.00532	0.00639	0.65302	-0.60633	9.88865
 1620118097	  918014974	-0.00476	-0.04731	0.60611	0.79395	0.00000	-0.00426	0.00639	0.64224	-0.63386	9.88326
 1620118097	  962014974	-0.00607	-0.04130	0.60670	0.79383	0.00000	0.00000	0.00639	0.63267	-0.61950	9.86471
 1620118098	   57014974	-0.00491	-0.04421	0.60684	0.79358	0.00000	0.00000	0.00745	0.63686	-0.60932	9.87429
 1620118098	  152014974	-0.00524	-0.04501	0.60705	0.79337	0.00000	0.00000	0.00639	0.63985	-0.62549	9.89105
 1620118098	  264014974	-0.00631	-0.04601	0.60733	0.79309	0.00000	0.00000	0.00532	0.63626	-0.62189	9.88446
 1620118098	  358014974	-0.00533	-0.04497	0.60760	0.79295	0.00000	0.00000	0.00639	0.64464	-0.62608	9.88985
 1620118098	  136955904	-0.00491	-0.04396	0.60788	0.79279	0.00000	0.00000	0.00639	0.63566	-0.60334	9.89583
 1620118098	  240955904	-0.00746	-0.04554	0.60813	0.79249	0.00000	0.00000	0.00532	0.63626	-0.61651	9.87728
 1620118098	  339955904	-0.00914	-0.04020	0.60857	0.79243	0.00000	0.00000	0.00532	0.63805	-0.62189	9.86112
 1620118098	  445955904	-0.00524	-0.04409	0.60856	0.79226	0.00000	0.00000	0.00000	0.62788	-0.61172	9.88326
 1620118098	  609955904	-0.00419	-0.04433	0.60860	0.79222	0.00000	0.00000	0.00426	0.65242	-0.61531	9.88027
 1620118098	  653955904	-0.01059	-0.04734	0.60891	0.79175	0.00000	-0.00426	0.00426	0.65422	-0.59496	9.87668
 1620118098	  747955904	-0.00734	-0.04552	0.60902	0.79181	0.00000	-0.00639	0.00426	0.63207	-0.63805	9.85693
 1620118098	  851955904	-0.00538	-0.04542	0.60901	0.79184	0.00000	0.00000	0.00000	0.63506	-0.61471	9.84196
 1620118098	  957955904	-0.00449	-0.04512	0.60900	0.79187	0.00000	0.00000	0.00000	0.64883	-0.61591	9.83777
 1620118099	   24955904	-0.00547	-0.04568	0.60901	0.79182	0.00000	0.00000	0.00000	0.66080	-0.65661	9.85334
 1620118099	  113955904	-0.00442	-0.04489	0.60900	0.79188	0.00000	0.00000	0.00000	0.62489	-0.63566	9.88626
 1620118099	  262955904	-0.00608	-0.04727	0.60897	0.79175	0.00000	0.00000	0.00000	0.65062	-0.61292	9.89284
 1620118099	  345955904	-0.00503	-0.04427	0.60904	0.79188	0.00000	0.00000	0.00000	0.63147	-0.61172	9.84017
 1620118099	  434955904	-0.00496	-0.04524	0.60901	0.79185	0.00000	0.00000	0.00000	0.65481	-0.61591	9.88147
 1620118099	  609955904	-0.00522	-0.03549	0.60929	0.79213	0.00000	0.00000	0.00000	0.62668	-0.60813	9.86890
 1620118099	  666955904	-0.00503	-0.04127	0.60912	0.79198	0.00000	0.00000	0.00000	0.64165	-0.61711	9.88506
 1620118099	  753955904	-0.00643	-0.04312	0.60911	0.79188	0.00000	0.00000	0.00000	0.63147	-0.61711	9.88686
 1620118099	  847955904	-0.00463	-0.04467	0.60901	0.79189	0.00000	0.00000	0.00000	0.63267	-0.61052	9.89583
 1620118099	  962955904	-0.00352	-0.04641	0.60891	0.79186	0.00000	0.00000	0.00000	0.65062	-0.62309	9.87429
 1620118100	   68955904	-0.00526	-0.04509	0.60902	0.79185	0.00000	0.00000	0.00000	0.64524	-0.62788	9.85693
 1620118100	  158955904	-0.00560	-0.04483	0.60902	0.79186	0.00000	-0.00426	-0.00426	0.63566	-0.63027	9.87129
 1620118100	  238955904	-0.00512	-0.04476	0.60894	0.79193	0.00000	-0.00532	-0.00426	0.64105	-0.62309	9.89105
 1620118100	  352955904	-0.00561	-0.04467	0.60880	0.79204	0.00000	-0.00426	-0.00532	0.65781	-0.62608	9.88386
 1620118100	  447955904	-0.00503	-0.04496	0.60858	0.79220	0.00000	0.00000	-0.00532	0.64883	-0.62249	9.88626
 1620118100	  665448013	-0.01380	-0.05119	0.60831	0.79192	0.00000	0.00000	-0.00426	0.64703	-0.62788	9.90182
 1620118100	  703448013	-0.01121	-0.04925	0.60824	0.79214	0.00000	0.00000	-0.00532	0.63207	-0.66319	9.87429
 1620118100	  769448013	-0.00606	-0.04522	0.60807	0.79256	0.00000	0.00000	-0.00532	0.63207	-0.61830	9.85813
 1620118101	  140448013	-0.00564	-0.04427	0.60724	0.79326	0.00000	0.00000	-0.00639	0.61950	-0.61591	9.87848
 1620118101	  186448013	-0.00601	-0.04427	0.60714	0.79334	0.00000	0.00000	-0.00639	0.64224	-0.61890	9.86471
 1620118101	  267448013	-0.00509	-0.04510	0.60686	0.79350	0.00000	0.00000	-0.00532	0.65362	-0.62369	9.85753
 1620118101	  345448013	-0.00459	-0.04607	0.60661	0.79364	0.00000	0.00000	-0.00745	0.64464	-0.62429	9.82760
 1620118101	  491448013	-0.00557	-0.04409	0.60630	0.79399	0.00000	0.00000	-0.00745	0.62968	-0.61471	9.88985
 1620118101	  662448013	0.00358	-0.04082	0.60560	0.79471	0.00000	0.00000	-0.00745	0.63925	-0.60693	9.87129
 1620118101	  705448013	-0.00044	-0.04230	0.60557	0.79466	0.00000	-0.00426	-0.00639	0.63087	-0.63147	9.89344
 1620118101	  776448013	-0.00450	-0.04525	0.60542	0.79460	0.00000	0.00000	-0.00851	0.65541	-0.61711	9.89344
 1620118101	  868448013	-0.00561	-0.04535	0.60519	0.79476	0.00000	0.00000	-0.00639	0.65242	-0.63686	9.88626
 1620118101	  977448013	-0.00471	-0.04366	0.60490	0.79508	0.00000	0.00000	-0.00745	0.64165	-0.64584	9.87129
 1620118102	   65448013	-0.00496	-0.04468	0.60467	0.79521	0.00000	0.00000	-0.00532	0.64703	-0.61471	9.88267
 1620118102	  143448013	-0.00491	-0.04489	0.60444	0.79536	0.00000	0.00000	-0.00639	0.65182	-0.61591	9.89284
 1620118102	  272448013	-0.00530	-0.04425	0.60421	0.79557	0.00000	0.00000	-0.00532	0.64105	-0.60813	9.87788
 1620118102	  389448013	-0.00588	-0.04404	0.60401	0.79573	0.00000	0.00000	-0.00532	0.63805	-0.60753	9.87249
 1620118102	  473448013	-0.00509	-0.04472	0.60380	0.79586	0.00000	0.00426	0.00000	0.65062	-0.61112	9.89045
 1620118102	  662448013	-0.01337	-0.05301	0.60367	0.79535	0.00000	0.00000	0.00000	0.64105	-0.61411	9.86591
 1620118102	  700448013	-0.01078	-0.05017	0.60367	0.79558	0.00000	0.00000	0.00000	0.61711	-0.61950	9.90122
 1620118102	  771448013	-0.00625	-0.04494	0.60367	0.79594	0.00000	0.00000	0.00000	0.63267	-0.61711	9.87189
 1620118102	  877448013	-0.00328	-0.04365	0.60356	0.79611	0.00000	0.00000	0.00000	0.62968	-0.61112	9.85753
 1620118102	  965448013	-0.00864	-0.04640	0.60364	0.79585	0.00000	0.00000	0.00000	0.64524	-0.60753	9.85693
 1620118103	   81448013	-0.00453	-0.04473	0.60356	0.79604	0.00000	0.00000	0.00000	0.64943	-0.61950	9.83239
 1620118103	  154551008	-0.00506	-0.04475	0.60358	0.79602	0.00000	0.00000	0.00000	0.64404	-0.61651	9.87309
 1620118103	  255551008	-0.00743	-0.04426	0.60368	0.79596	0.00000	-0.00426	0.00000	0.64404	-0.61890	9.87668
 1620118103	  352551008	-0.00554	-0.04470	0.60362	0.79599	0.00000	-0.00426	0.00000	0.64823	-0.61172	9.89105
 1620118103	  449551008	-0.00498	-0.04375	0.60364	0.79604	0.00000	-0.00426	0.00000	0.62908	-0.60094	9.85513
 1620118103	  634551008	-0.00254	-0.03431	0.60382	0.79637	0.00000	0.00000	0.00000	0.63865	-0.60992	9.87010
 1620118103	  667551008	-0.00345	-0.03812	0.60375	0.79625	0.00000	0.00000	0.00000	0.64943	-0.60753	9.87249
 1620118103	  725551008	-0.00491	-0.04313	0.60365	0.79606	0.00000	0.00000	0.00000	0.62668	-0.61232	9.87189
 1620118103	  864551008	-0.00637	-0.04412	0.60367	0.79598	0.00000	0.00000	0.00000	0.65541	-0.60992	9.86770
 1620118103	  958551008	-0.00545	-0.04483	0.60362	0.79599	0.00000	0.00000	0.00000	0.64284	-0.61351	9.87908
 1620118104	   46551008	-0.00534	-0.04400	0.60364	0.79602	0.00000	0.00426	0.00000	0.62249	-0.60813	9.86172
 1620118104	  168551008	-0.00475	-0.04571	0.60362	0.79594	0.00000	0.00426	0.00000	0.63566	-0.61950	9.89105
 1620118104	  261551008	-0.00533	-0.04441	0.60371	0.79594	0.00000	0.00000	0.00000	0.62369	-0.63027	9.83418
 1620118104	  349551008	-0.00462	-0.04432	0.60381	0.79588	0.00000	0.00000	0.00426	0.64883	-0.59316	9.84735
 1620118104	  459551008	-0.00581	-0.04147	0.60408	0.79581	0.00000	0.00000	0.00426	0.62130	-0.61711	9.86770
 1620118104	  637551008	-0.00454	-0.04323	0.60409	0.79572	0.00000	0.00000	0.00426	0.62968	-0.60094	9.87369
 1620118104	  668551008	-0.00581	-0.05159	0.60411	0.79520	0.00000	0.00000	0.00426	0.63626	-0.60334	9.87908
 1620118104	  758551008	-0.00468	-0.04459	0.60447	0.79536	0.00000	-0.00532	0.00532	0.64344	-0.58957	9.87070
 1620118104	  854551008	-0.00493	-0.04483	0.60468	0.79518	0.00000	-0.00532	0.00532	0.64524	-0.61531	9.86351
 1620118104	  962551008	-0.00776	-0.04395	0.60499	0.79497	0.00000	0.00000	0.00426	0.63746	-0.63207	9.86770
 1620118105	   57551008	-0.00478	-0.04520	0.60509	0.79485	0.00000	-0.00426	0.00532	0.64344	-0.61292	9.88087
 1620118105	  152551008	-0.00521	-0.04514	0.60534	0.79466	0.00000	0.00000	0.00745	0.65422	-0.62489	9.90481
 1620118105	  224551008	-0.00515	-0.04390	0.60555	0.79458	0.00000	0.00000	0.00639	0.62489	-0.59436	9.89284
 1620118105	  377551008	-0.00487	-0.04463	0.60586	0.79430	0.00000	0.00000	0.00639	0.63386	-0.64105	9.89524
 1620118105	  455551008	-0.00690	-0.04389	0.60612	0.79412	0.00000	0.00000	0.00532	0.63147	-0.62010	9.88027
 1620118105	  660197050	-0.01527	-0.04743	0.60671	0.79335	0.00000	0.00000	0.00532	0.63805	-0.61950	9.83658
 1620118105	  675197050	-0.01371	-0.04694	0.60672	0.79341	0.00000	0.00000	0.00532	0.61950	-0.62429	9.88446
 1620118105	  764197050	-0.00535	-0.04531	0.60672	0.79360	0.00000	0.00000	0.00532	0.64943	-0.63566	9.90002
 1620118105	  871197050	-0.00580	-0.04705	0.60692	0.79334	0.00000	0.00000	0.00532	0.64045	-0.62489	9.89763
 1620118105	  966197050	-0.00558	-0.04502	0.60715	0.79328	0.00000	0.00000	0.00532	0.62908	-0.62309	9.85394
 1620118106	   51197050	-0.00614	-0.04773	0.60726	0.79304	0.00000	0.00000	0.00532	0.61591	-0.62010	9.87788
 1620118106	  165197050	-0.00690	-0.04301	0.60757	0.79307	0.00000	0.00000	0.00426	0.63267	-0.63925	9.85872
 1620118106	  301197050	-0.00569	-0.04631	0.60761	0.79286	0.00000	-0.00532	0.00426	0.63925	-0.61770	9.86291
 1620118106	  367197050	-0.00592	-0.04341	0.60772	0.79294	0.00000	-0.00426	0.00000	0.63147	-0.62608	9.88386
 1620118106	  458197050	-0.00578	-0.04392	0.60770	0.79293	0.00000	0.00000	0.00000	0.63626	-0.61770	9.88805
 1620118106	  622197050	-0.00644	-0.04439	0.60771	0.79289	0.00000	0.00000	0.00000	0.64344	-0.60573	9.89045
 1620118106	  667197050	-0.00968	-0.03927	0.60797	0.79293	0.00000	0.00000	0.00000	0.63985	-0.62728	9.86650
 1620118106	  753197050	-0.00478	-0.04449	0.60766	0.79293	0.00000	0.00000	0.00000	0.64165	-0.61292	9.88087
 1620118106	  832197050	-0.00520	-0.04429	0.60768	0.79293	0.00000	0.00000	0.00000	0.62668	-0.61591	9.86890
 1620118106	  974197050	-0.00544	-0.04365	0.60770	0.79294	0.00000	0.00000	0.00000	0.61112	-0.63506	9.88386
 1620118107	   55197050	-0.00565	-0.04491	0.60767	0.79289	0.00000	0.00000	0.00000	0.63147	-0.63207	9.89404
 1620118107	  182197050	-0.00278	-0.04250	0.60765	0.79306	0.00000	0.00000	0.00000	0.63925	-0.60992	9.89164
 1620118107	  268197050	-0.00518	-0.04780	0.60756	0.79281	0.00000	0.00000	0.00000	0.63386	-0.63327	9.88207
 1620118107	  367197050	-0.00629	-0.04367	0.60772	0.79292	0.00000	0.00000	0.00000	0.63027	-0.60394	9.90421
 1620118107	  449197050	-0.00542	-0.04426	0.60768	0.79292	0.00000	0.00000	0.00000	0.62848	-0.62010	9.89943
 1620118107	  649197050	-0.00524	-0.03393	0.60796	0.79322	0.00000	0.00000	0.00000	0.63686	-0.63506	9.87369
 1620118107	  692197050	-0.00539	-0.03771	0.60787	0.79312	0.00000	0.00000	0.00000	0.63746	-0.62788	9.85513
 1620118107	  763197050	-0.00511	-0.04477	0.60765	0.79292	0.00000	0.00000	0.00000	0.64703	-0.62429	9.85513
 1620118107	  853197050	-0.00517	-0.04473	0.60758	0.79298	0.00000	-0.00426	-0.00426	0.63925	-0.62848	9.86531
 1620118107	  960197050	-0.00473	-0.04626	0.60744	0.79300	0.00000	0.00000	0.00000	0.64584	-0.62369	9.88925
 1620118108	   53197050	-0.00523	-0.04485	0.60743	0.79309	0.00000	0.00000	-0.00426	0.64284	-0.61770	9.88566
 1620118108	  154246019	-0.00492	-0.04464	0.60724	0.79324	0.00000	0.00000	-0.00532	0.64584	-0.60633	9.89045
 1620118108	  272246019	-0.00536	-0.04498	0.60704	0.79338	0.00000	0.00000	-0.00426	0.63087	-0.63207	9.85932
 1620118108	  353246019	-0.00450	-0.04468	0.60685	0.79354	0.00000	0.00000	-0.00532	0.64943	-0.60932	9.89643
 1620118108	  484246019	-0.00538	-0.04430	0.60664	0.79371	0.00000	0.00000	-0.00532	0.64524	-0.62070	9.89943
 1620118108	  645246019	-0.00364	-0.04499	0.60647	0.79382	0.00000	0.00000	-0.00426	0.64584	-0.61711	9.90661
 1620118108	  662246019	-0.01355	-0.04226	0.60659	0.79377	0.00000	0.00000	-0.00639	0.61770	-0.63746	9.84975
 1620118108	  751246019	-0.00446	-0.04411	0.60604	0.79419	0.00000	0.00000	-0.00532	0.63925	-0.60394	9.87309
 1620118108	  852246019	-0.00615	-0.04412	0.60585	0.79432	0.00000	0.00000	-0.00639	0.63267	-0.62130	9.87429
 1620118108	  967246019	-0.00692	-0.04096	0.60570	0.79460	0.00000	0.00000	-0.00639	0.63027	-0.61232	9.89763
 1620118109	   33246019	-0.00390	-0.04653	0.60525	0.79466	0.00000	0.00000	-0.00745	0.64404	-0.61471	9.87548
 1620118109	  162246019	-0.00253	-0.04730	0.60489	0.79489	0.00000	0.00000	-0.00639	0.65721	-0.61052	9.86531
 1620118109	  253246019	-0.00445	-0.04499	0.60479	0.79510	0.00000	0.00000	-0.00639	0.66080	-0.60394	9.88745
 1620118109	  358246019	-0.00459	-0.04242	0.60459	0.79539	0.00000	0.00000	-0.00639	0.63865	-0.62309	9.87070
 1620118109	  457246019	-0.00432	-0.04432	0.60429	0.79552	0.00000	0.00000	-0.00639	0.64045	-0.59256	9.88027
 1620118109	  639246019	-0.00588	-0.04510	0.60414	0.79558	0.00000	0.00000	-0.00532	0.63985	-0.62848	9.90481
 1620118109	  688246019	0.00034	-0.04507	0.60355	0.79604	0.00000	0.00000	-0.00639	0.64943	-0.62848	9.86351
 1620118109	  759246019	-0.00454	-0.04451	0.60356	0.79606	0.00000	0.00000	-0.00532	0.64883	-0.60334	9.86890
 1620118109	  868246019	-0.00503	-0.04481	0.60332	0.79622	0.00000	0.00000	-0.00532	0.62489	-0.60454	9.88207
 1620118109	  956246019	-0.00534	-0.04502	0.60314	0.79634	0.00000	0.00426	-0.00532	0.63566	-0.62070	9.85394
 1620118110	   93246019	-0.00626	-0.04387	0.60296	0.79654	0.00000	0.00000	-0.00426	0.62489	-0.61232	9.85992
 1620118110	  149246019	-0.00400	-0.04511	0.60281	0.79659	0.00000	0.00000	0.00000	0.63566	-0.60154	9.88446
 1620118110	  250246019	-0.00486	-0.04456	0.60275	0.79667	0.00000	0.00000	-0.00426	0.64703	-0.60633	9.89284
 1620118110	  364246019	-0.00593	-0.04218	0.60279	0.79676	0.00000	0.00000	0.00000	0.62788	-0.60573	9.88027
 1620118110	  461246019	-0.00552	-0.04370	0.60270	0.79674	0.00000	0.00000	0.00000	0.62608	-0.62608	9.88985
 1620118110	  678475067	0.00684	-0.04864	0.60210	0.79690	0.00000	0.00000	0.00000	0.64763	-0.61711	9.87249
 1620118110	  688475067	0.00578	-0.04825	0.60215	0.79690	0.00000	-0.00426	0.00000	0.63386	-0.61471	9.87967
 1620118110	  744475067	0.00000	-0.04646	0.60243	0.79681	0.00000	-0.00426	0.00000	0.65960	-0.62848	9.88626
 1620118110	  864475067	-0.00468	-0.04439	0.60266	0.79674	0.00000	-0.00532	0.00000	0.63087	-0.61770	9.89823
 1620118110	  963475067	-0.00473	-0.04495	0.60265	0.79672	0.00000	-0.00426	0.00000	0.65422	-0.61292	9.87668
 1620118111	   67475067	-0.00774	-0.04276	0.60282	0.79669	0.00000	0.00000	0.00000	0.63027	-0.62130	9.87129
 1620118111	  152475067	-0.00599	-0.04348	0.60275	0.79672	0.00000	0.00000	0.00000	0.62549	-0.59436	9.87249
 1620118111	  246475067	-0.00584	-0.04568	0.60267	0.79665	0.00000	0.00000	0.00000	0.65122	-0.63147	9.85274
 1620118111	  385475067	-0.00251	-0.04480	0.60259	0.79678	0.00000	0.00000	0.00000	0.65003	-0.59436	9.84855
 1620118111	  469475067	-0.00649	-0.04498	0.60272	0.79665	0.00000	0.00000	0.00000	0.64165	-0.63027	9.85154
 1620118111	  647475067	-0.00571	-0.03520	0.60298	0.79695	0.00000	0.00000	0.00000	0.62788	-0.62549	9.89643
 1620118111	  680475067	-0.00569	-0.03911	0.60289	0.79684	0.00000	0.00000	0.00426	0.64224	-0.60753	9.85453
 1620118111	  756475067	-0.00547	-0.04478	0.60272	0.79667	0.00000	0.00000	0.00000	0.63805	-0.62309	9.85034
 1620118111	  850475067	-0.00444	-0.04382	0.60281	0.79666	0.00000	0.00000	0.00000	0.64404	-0.60154	9.86770
 1620118111	  959475067	-0.00252	-0.04369	0.60277	0.79671	0.00000	0.00000	0.00000	0.64464	-0.61471	9.87728
 1620118112	   55475067	-0.00469	-0.04472	0.60289	0.79655	0.00000	0.00000	0.00426	0.65182	-0.60992	9.89344
 1620118112	  143475067	-0.00532	-0.04447	0.60306	0.79643	0.00000	-0.00426	0.00426	0.62668	-0.60693	9.88207
 1620118112	  273475067	-0.00448	-0.04431	0.60328	0.79628	0.00000	-0.00426	0.00426	0.66379	-0.61651	9.89164
 1620118112	  351475067	-0.00494	-0.04488	0.60342	0.79614	0.00000	0.00000	0.00639	0.65422	-0.61232	9.89045
 1620118112	  483475067	-0.00513	-0.04426	0.60366	0.79599	0.00000	-0.00532	0.00426	0.63626	-0.61112	9.87548
 1620118112	  644475067	-0.01213	-0.04615	0.60416	0.79543	0.00000	0.00000	0.00532	0.65003	-0.61232	9.88147
 1620118112	  696475067	-0.00753	-0.04520	0.60416	0.79554	0.00000	0.00000	0.00532	0.63925	-0.61950	9.87668
 1620118112	  767475067	-0.00498	-0.04491	0.60424	0.79552	0.00000	0.00000	0.00532	0.65003	-0.61770	9.89703
 1620118112	  877475067	-0.00361	-0.04418	0.60446	0.79539	0.00000	0.00000	0.00426	0.63805	-0.61292	9.88686
 1620118112	  986475067	-0.00987	-0.04321	0.60491	0.79506	0.00000	0.00000	0.00532	0.62549	-0.64883	9.88745
 1620118113	   61475067	-0.00516	-0.04594	0.60484	0.79500	0.00000	0.00000	0.00532	0.64045	-0.61471	9.87488
 1620118113	  160627986	-0.00491	-0.04419	0.60510	0.79490	0.00000	0.00000	0.00532	0.63805	-0.60813	9.88865
 1620118113	  259627986	-0.00420	-0.04433	0.60527	0.79477	0.00000	0.00000	0.00532	0.63506	-0.61351	9.87429
 1620118113	  366627986	-0.00587	-0.04482	0.60553	0.79453	0.00000	0.00000	0.00532	0.62728	-0.61292	9.87548
 1620118113	  459627986	-0.00612	-0.04431	0.60574	0.79440	0.00000	0.00000	0.00532	0.62908	-0.62249	9.87010
 1620118113	  643627986	-0.00581	-0.04440	0.60588	0.79429	0.00000	0.00000	0.00426	0.62549	-0.62668	9.87728
 1620118113	  665627986	-0.00182	-0.05263	0.60565	0.79398	0.00000	0.00000	0.00000	0.64883	-0.61232	9.85573
 1620118113	  715627986	-0.00382	-0.04767	0.60593	0.79407	0.00000	-0.00426	0.00426	0.64105	-0.61351	9.86770
 1620118113	  884627986	-0.00507	-0.04310	0.60617	0.79414	0.00000	0.00000	0.00426	0.63925	-0.63386	9.84855
 1620118113	  955627986	-0.00539	-0.04500	0.60615	0.79405	0.00000	-0.00426	0.00000	0.64284	-0.61950	9.89045
 1620118114	   45627986	-0.00536	-0.04440	0.60617	0.79407	0.00000	-0.00426	0.00000	0.63626	-0.61890	9.88506
 1620118114	  156627986	-0.00322	-0.04223	0.60617	0.79420	0.00000	0.00000	0.00000	0.64224	-0.59735	9.88446
 1620118114	  244627986	-0.00495	-0.04463	0.60616	0.79407	0.00000	0.00000	0.00000	0.64284	-0.61411	9.87070
 1620118114	  363627986	-0.00459	-0.04156	0.60624	0.79418	0.00000	0.00000	0.00000	0.63805	-0.61292	9.86351
 1620118114	  449627986	-0.00697	-0.04466	0.60622	0.79401	0.00000	0.00000	0.00000	0.64703	-0.63686	9.85274
 1620118114	  651627986	-0.00120	-0.05151	0.60580	0.79394	0.00000	0.00000	0.00000	0.62309	-0.63147	9.86172
 1620118114	  694627986	-0.00338	-0.04784	0.60601	0.79401	0.00000	0.00000	0.00000	0.63087	-0.62249	9.87129
 1620118114	  745627986	-0.00586	-0.04454	0.60619	0.79404	0.00000	0.00000	0.00000	0.63087	-0.62608	9.87788
 1620118114	  859627986	-0.00650	-0.04514	0.60619	0.79400	0.00000	0.00000	0.00000	0.63506	-0.60035	9.87967
 1620118114	  954627986	-0.00449	-0.04625	0.60609	0.79403	0.00000	0.00000	0.00000	0.64045	-0.63087	9.85872
 1620118115	   75627986	-0.00788	-0.04356	0.60628	0.79401	0.00000	0.00000	0.00000	0.63207	-0.60394	9.88267
 1620118115	  153627986	-0.00498	-0.04248	0.60623	0.79414	0.00000	0.00000	0.00000	0.62429	-0.61950	9.84975
 1620118115	  297627986	-0.00543	-0.04834	0.60606	0.79393	0.00000	0.00000	0.00000	0.65242	-0.62429	9.85872
 1620118115	  366627986	-0.00450	-0.04197	0.60615	0.79422	0.00000	-0.00426	-0.00532	0.63626	-0.61351	9.85753
 1620118115	  466627986	-0.00612	-0.04458	0.60609	0.79412	0.00000	0.00000	-0.00426	0.63147	-0.62489	9.86890
 1620118115	  674465044	-0.00158	-0.05511	0.60519	0.79416	0.00000	0.00000	-0.00426	0.64224	-0.62908	9.84915
 1620118115	  697465044	-0.00260	-0.05254	0.60530	0.79425	0.00000	0.00000	0.00000	0.64045	-0.62608	9.86770
 1620118115	  768465044	-0.00489	-0.04669	0.60549	0.79446	0.00000	0.00000	-0.00426	0.63925	-0.65900	9.88326
 1620118115	  851465044	-0.00537	-0.04417	0.60551	0.79459	0.00000	0.00000	-0.00426	0.63686	-0.60633	9.85094
 1620118115	  955465044	-0.00331	-0.04621	0.60518	0.79473	0.00000	0.00000	-0.00532	0.65960	-0.59915	9.87429
 1620118116	   64465044	-0.00508	-0.04467	0.60507	0.79490	0.00000	0.00000	-0.00639	0.63985	-0.61292	9.87369
 1620118116	  135465044	-0.00516	-0.04413	0.60494	0.79502	0.00000	0.00000	-0.00532	0.64344	-0.61770	9.87369
 1620118116	  270465044	-0.00622	-0.04486	0.60463	0.79521	0.00000	0.00000	-0.00745	0.64045	-0.60813	9.88745
 1620118116	  363465044	-0.00552	-0.04485	0.60441	0.79538	0.00000	0.00000	-0.00532	0.63865	-0.63267	9.84496
 1620118116	  452465044	-0.00576	-0.04350	0.60426	0.79557	0.00000	0.00000	-0.00532	0.61770	-0.61052	9.83598
 1620118116	  652465044	-0.00868	-0.04288	0.60413	0.79568	0.00000	0.00000	-0.00639	0.62309	-0.62489	9.87908
 1620118116	  683465044	-0.00174	-0.04631	0.60347	0.79603	0.00000	0.00000	-0.00639	0.63147	-0.62549	9.86591
 1620118116	  758465044	-0.00807	-0.04437	0.60355	0.79604	0.00000	0.00000	-0.00532	0.61890	-0.61830	9.85753
 1620118116	  867465044	-0.00502	-0.04511	0.60318	0.79631	0.00000	0.00000	-0.00532	0.64823	-0.61830	9.87309
 1620118116	  992465044	-0.00775	-0.04438	0.60300	0.79646	0.00000	0.00000	-0.00639	0.63566	-0.62728	9.86591
 1620118117	   67465044	-0.00650	-0.04323	0.60279	0.79670	0.00000	-0.00426	-0.00745	0.64823	-0.60513	9.87728
 1620118117	  163465044	-0.00543	-0.04549	0.60246	0.79683	0.00000	0.00000	-0.00532	0.65062	-0.62309	9.88207
 1620118117	  272465044	-0.00821	-0.04539	0.60235	0.79689	0.00000	0.00000	-0.00426	0.63267	-0.61711	9.88326
 1620118117	  353465044	-0.00313	-0.04347	0.60208	0.79724	0.00000	0.00000	-0.00532	0.64703	-0.62369	9.83957
 1620118117	  463465044	-0.00471	-0.04484	0.60188	0.79730	0.00000	0.00000	-0.00426	0.65062	-0.61232	9.86650
 1620118117	  682465044	-0.00862	-0.04483	0.60182	0.79732	0.00000	0.00000	-0.00532	0.63746	-0.62549	9.87967
 1620118117	  688465044	0.00344	-0.04336	0.60118	0.79792	0.00000	0.00426	-0.00532	0.63446	-0.62130	9.85753
 1620118117	  771465044	-0.00483	-0.04419	0.60132	0.79777	0.00000	0.00000	-0.00426	0.63686	-0.61411	9.89883
 1620118117	  862465044	-0.00592	-0.04426	0.60125	0.79781	0.00000	0.00000	0.00000	0.63386	-0.62728	9.86890
 1620118117	  962465044	-0.00556	-0.04437	0.60123	0.79782	0.00000	0.00000	0.00000	0.63566	-0.62728	9.87668
 1620118118	   16465044	-0.00544	-0.04444	0.60122	0.79782	0.00000	0.00000	0.00000	0.63805	-0.59556	9.86232
 1620118118	  158627088	-0.00587	-0.04398	0.60126	0.79782	0.00000	0.00000	0.00000	0.62549	-0.61711	9.87369
 1620118118	  249627088	-0.00603	-0.04439	0.60125	0.79780	0.00000	-0.00426	0.00000	0.63686	-0.62728	9.92037
 1620118118	  345627088	-0.00455	-0.04397	0.60122	0.79785	0.00000	-0.00426	0.00000	0.64404	-0.59256	9.88925
 1620118118	  467627088	-0.00571	-0.04435	0.60125	0.79780	0.00000	-0.00532	0.00000	0.63446	-0.62130	9.88027
 1620118118	  699627088	-0.00496	-0.04486	0.60122	0.79780	0.00000	-0.00426	0.00000	0.64883	-0.61292	9.89643
 1620118118	  705627088	-0.01501	-0.03387	0.60184	0.79775	0.00000	-0.00426	0.00000	0.63147	-0.61531	9.87848
 1620118118	  771627088	-0.01018	-0.03914	0.60157	0.79779	0.00000	0.00000	0.00000	0.65422	-0.61770	9.84017
 1620118118	  809627088	-0.00814	-0.04172	0.60143	0.79779	0.00000	0.00000	0.00000	0.62908	-0.62788	9.86950
 1620118118	  955627088	-0.00828	-0.04373	0.60137	0.79772	0.00000	0.00000	0.00000	0.63805	-0.61651	9.90481
 1620118119	   48627088	-0.00592	-0.04413	0.60128	0.79779	0.00000	0.00000	0.00000	0.65362	-0.59975	9.88267
 1620118119	  169627088	-0.00847	-0.04698	0.60127	0.79761	0.00000	0.00000	0.00000	0.64105	-0.64344	9.85453
 1620118119	  247627088	-0.00422	-0.04408	0.60123	0.79784	0.00000	0.00000	0.00000	0.62489	-0.60633	9.90661
 1620118119	  381627088	-0.00339	-0.04332	0.60123	0.79789	0.00000	0.00000	0.00000	0.62070	-0.60394	9.90481
 1620118119	  457627088	-0.00686	-0.04651	0.60125	0.79767	0.00000	0.00000	0.00426	0.64763	-0.61172	9.90122
 1620118119	  545627088	-0.00614	-0.04492	0.60128	0.79774	0.00000	0.00000	0.00000	0.63386	-0.63746	9.90062
 1620118119	  677627088	0.00238	-0.04734	0.60091	0.79791	0.00000	0.00000	0.00000	0.63566	-0.62908	9.87668
 1620118119	  753627088	-0.00453	-0.04463	0.60125	0.79779	0.00000	-0.00426	0.00000	0.64464	-0.60932	9.84795
 1620118119	  863627088	-0.00274	-0.04401	0.60130	0.79780	0.00000	-0.00426	0.00000	0.64584	-0.60693	9.86950
 1620118119	  950627088	-0.00428	-0.04574	0.60143	0.79760	0.00000	-0.00426	0.00426	0.63327	-0.60992	9.88745
 1620118120	   86627088	-0.00418	-0.04278	0.60179	0.79750	0.00000	0.00000	0.00426	0.62788	-0.60035	9.88805
 1620118120	  160627088	-0.00619	-0.04282	0.60198	0.79734	0.00000	0.00000	0.00532	0.63985	-0.62549	9.87309
 1620118120	  244627088	-0.00584	-0.04635	0.60197	0.79715	0.00000	0.00000	0.00426	0.63746	-0.62070	9.86232
 1620118120	  385627088	-0.00740	-0.04294	0.60244	0.79697	0.00000	0.00000	0.00639	0.63746	-0.62189	9.88925
 1620118120	  463627088	-0.00350	-0.04343	0.60244	0.79697	0.00000	0.00000	0.00426	0.63686	-0.60573	9.86830
 1620118120	  545627088	-0.00721	-0.04381	0.60271	0.79672	0.00000	0.00000	0.00532	0.61591	-0.63267	9.88207
 1620118120	  670377931	0.00326	-0.04615	0.60258	0.79671	0.00000	0.00000	0.00639	0.62788	-0.62249	9.87129
 1620118120	  761377931	-0.00488	-0.04483	0.60303	0.79644	0.00000	0.00000	0.00000	0.64105	-0.61890	9.86591
 1620118120	  856377931	-0.00569	-0.04391	0.60326	0.79631	0.00000	0.00000	0.00532	0.62369	-0.61351	9.85274
 1620118120	  977377931	-0.00618	-0.04694	0.60340	0.79602	0.00000	0.00000	0.00426	0.64584	-0.60573	9.87309
 1620118121	   58377931	-0.00711	-0.04777	0.60352	0.79588	0.00000	0.00000	0.00426	0.64643	-0.63327	9.87488
 1620118121	  153377931	-0.00369	-0.04084	0.60379	0.79608	0.00000	0.00000	0.00426	0.63506	-0.63386	9.89643
 1620118121	  269377931	-0.00576	-0.04381	0.60392	0.79582	0.00000	-0.00426	0.00000	0.61651	-0.60693	9.88087
 1620118121	  374377931	-0.00352	-0.04562	0.60384	0.79578	0.00000	0.00000	0.00000	0.62908	-0.61591	9.85992
 1620118121	  472377931	-0.00570	-0.04428	0.60398	0.79574	0.00000	-0.00426	0.00000	0.62968	-0.62608	9.85214
 1620118121	  543377931	-0.00667	-0.04451	0.60401	0.79570	0.00000	0.00000	0.00000	0.62549	-0.63327	9.87668
 1620118121	  668377931	-0.00898	-0.04070	0.60420	0.79574	0.00000	0.00000	0.00000	0.64703	-0.62249	9.89284
 1620118121	  765377931	-0.00344	-0.04726	0.60382	0.79571	0.00000	0.00000	0.00000	0.66140	-0.61292	9.87129
 1620118121	  870377931	-0.00574	-0.04524	0.60396	0.79570	0.00000	0.00000	0.00000	0.63865	-0.62309	9.83059
 1620118121	  953377931	-0.00504	-0.04407	0.60397	0.79576	0.00000	0.00000	0.00000	0.63386	-0.60573	9.88147
 1620118122	   63377931	-0.00764	-0.04282	0.60409	0.79572	0.00000	0.00000	0.00000	0.62369	-0.61711	9.87848
 1620118122	  172377931	-0.00588	-0.04519	0.60396	0.79570	0.00000	0.00000	0.00000	0.64524	-0.63746	9.88027
 1620118122	  250377931	-0.00569	-0.04444	0.60398	0.79574	0.00000	0.00000	0.00000	0.63147	-0.62728	9.88087
 1620118122	  363377931	-0.00576	-0.04323	0.60402	0.79577	0.00000	0.00000	0.00000	0.62908	-0.62189	9.87548
 1620118122	  457377931	-0.00666	-0.04562	0.60397	0.79566	0.00000	0.00000	0.00000	0.64284	-0.65362	9.88506
 1620118122	  580377931	-0.00959	-0.04488	0.60409	0.79559	0.00000	0.00000	0.00000	0.63027	-0.62668	9.82820
 1620118122	  679377931	-0.00123	-0.04730	0.60373	0.79578	0.00000	0.00000	0.00000	0.61950	-0.64524	9.82281
 1620118122	  765377931	-0.00747	-0.04494	0.60396	0.79571	0.00851	-0.00426	0.00000	0.59316	-0.66679	9.85633
