Sec	Nsec	OrientX	OrientY	OrientZ	OrientW	AngVelX	AngVelY	AngVelZ	AccX	AccY	AccZ
 1620117191	  423449031	0.02220	-0.00966	0.69532	0.71829	0.00426	-0.00532	0.01064	0.41480	0.14844	9.94432
 1620117191	  525449031	0.01893	-0.00956	0.69577	0.71794	0.00000	0.00000	0.01064	0.40342	0.13886	9.92576
 1620117191	  625449031	0.01930	-0.00982	0.69617	0.71754	0.00000	0.00000	0.01064	0.40402	0.13527	9.92397
 1620117191	  832449031	0.01634	-0.00898	0.69665	0.71717	0.00000	0.00639	0.01171	0.39983	0.12869	9.95270
 1620117191	  839449031	0.02309	-0.01530	0.69699	0.71654	0.00000	0.00958	0.01064	0.41120	0.10175	9.92995
 1620117191	  886449031	0.02006	-0.01207	0.69720	0.71648	0.00000	0.00851	0.01064	0.39923	0.11911	9.92277
 1620117191	  997449031	0.01683	-0.00907	0.69771	0.71612	0.00000	0.00958	0.01171	0.38547	0.12450	9.93713
 1620117192	  120449031	0.02032	-0.01095	0.69815	0.71557	0.00000	0.00639	0.01171	0.39804	0.11313	9.92217
 1620117192	  219449031	0.01828	-0.00938	0.69853	0.71528	0.00000	0.00000	0.00958	0.39145	0.12749	9.93294
 1620117192	  313449031	0.01769	-0.00975	0.69888	0.71495	-0.00426	0.00000	0.00851	0.39205	0.11732	9.95389
 1620117192	  424449031	0.01707	-0.01147	0.69930	0.71453	-0.00745	-0.00532	0.00958	0.39863	0.12989	9.91858
 1620117192	  515449031	0.01731	-0.01031	0.69955	0.71429	-0.00745	-0.00639	0.00958	0.39085	0.11552	9.91978
 1620117192	  674449031	0.01836	-0.01058	0.69999	0.71383	0.00000	-0.01064	0.00851	0.39804	0.12929	9.92277
 1620117193	   62449031	0.01275	0.00908	0.70087	0.71311	0.00426	0.00000	0.00639	0.38846	0.11791	9.94073
 1620117193	   90449031	0.01371	0.00592	0.70100	0.71300	0.00000	0.00000	0.00639	0.38666	0.12989	9.92696
 1620117193	  194449031	0.01647	-0.00341	0.70130	0.71266	0.00000	0.00426	0.00532	0.39085	0.12091	9.98382
 1620117193	  227449031	0.01769	-0.00697	0.70138	0.71253	0.00000	0.00639	0.00532	0.39624	0.12390	9.93414
 1620117193	  346449031	0.01529	-0.01076	0.70165	0.71227	0.00000	0.00958	0.00426	0.39205	0.11193	9.92816
 1620117197	  274590972	0.02047	-0.01062	0.69370	0.71989	0.00000	-0.00958	0.00000	0.38726	0.11013	9.93893
 1620117197	  294590972	0.01901	-0.01054	0.69373	0.71990	0.00000	-0.00851	0.00000	0.40223	0.11372	9.93833
 1620117197	  367590972	0.01807	-0.00964	0.69374	0.71993	0.00000	-0.00532	0.00000	0.40701	0.12330	9.95150
 1620117197	  399590972	0.01811	-0.01027	0.69374	0.71992	0.00000	-0.00639	0.00000	0.40761	0.12570	9.95689
 1620117197	  512590972	0.01768	-0.01040	0.69375	0.71992	0.00000	0.00000	0.00000	0.39085	0.11492	9.93773
 1620117197	  630590972	0.01908	-0.01214	0.69373	0.71987	0.00000	0.00000	0.00000	0.39025	0.11492	9.92456
 1620117197	  857590972	0.01022	-0.00132	0.69380	0.72009	0.00000	0.00639	0.00000	0.37469	0.12031	9.91738
 1620117197	  943590972	0.01568	-0.00764	0.69380	0.71995	0.00426	0.00851	0.00426	0.40582	0.12749	9.90900
 1620117198	   99590972	0.01846	-0.01004	0.69391	0.71975	0.00532	0.00639	0.00426	0.39085	0.12330	9.96886
 1620117198	  106590972	0.01826	-0.00958	0.69393	0.71974	0.00532	0.00639	0.00426	0.39205	0.12570	9.96167
 1620117198	  199590972	0.01782	-0.00893	0.69410	0.71960	0.00426	0.00426	0.00532	0.37409	0.12869	9.90661
 1620117198	  636590972	0.01842	-0.00991	0.69509	0.71861	0.00000	-0.00851	0.00745	0.37350	0.11013	9.90122
 1620117198	  723590972	0.01899	-0.01035	0.69529	0.71840	0.00000	-0.00958	0.00745	0.40462	0.12570	9.92277
 1620117198	  952442045	0.01996	-0.01115	0.69595	0.71772	0.00000	-0.00745	0.00851	0.40642	0.10475	9.91858
 1620117199	  736442045	0.01762	-0.01036	0.69865	0.71517	0.00000	0.00000	0.01064	0.38906	0.11133	9.96826
 1620117199	  768442045	0.01747	-0.00995	0.69877	0.71506	0.00000	0.00426	0.00851	0.38307	0.11073	9.94192
 1620117200	  351442045	0.01933	-0.00947	0.70057	0.71326	0.00426	-0.00958	0.00851	0.39863	0.13168	9.91858
 1620117200	  767442045	0.01765	-0.00983	0.70150	0.71238	0.00000	0.00000	0.00426	0.37469	0.11013	9.94013
 1620117200	  898442045	0.01721	-0.01009	0.70151	0.71237	0.00000	0.00000	0.00000	0.38307	0.10295	9.93414
 1620117201	  442726043	0.01883	-0.00805	0.70156	0.71231	0.00000	0.00000	0.00000	0.39983	0.11732	9.92157
 1620117201	  884726043	0.01910	-0.01158	0.70148	0.71233	0.00000	-0.00851	0.00000	0.37888	0.11612	9.94372
 1620117201	  890726043	0.01668	-0.00175	0.70144	0.71252	0.00000	-0.00745	0.00000	0.39265	0.12989	9.91738
 1620117202	  347726043	0.01884	-0.01000	0.70057	0.71326	0.00000	0.00426	-0.00851	0.38188	0.13048	9.89344
 1620117202	  889726043	0.02361	-0.01091	0.69892	0.71472	0.00000	0.00000	-0.00958	0.39444	0.09038	9.93115
 1620117203	  267726043	0.01599	-0.01168	0.69783	0.71598	0.00000	-0.00745	-0.00851	0.39085	0.11253	9.91080
 1620117203	  337726043	0.01586	-0.00946	0.69757	0.71627	0.00000	-0.00851	-0.00958	0.38128	0.11073	9.89045
 1620117203	  711726043	0.01867	-0.00965	0.69620	0.71753	0.00000	0.00000	-0.00851	0.40881	0.12390	9.88865
 1620117203	  903474979	0.02002	-0.00797	0.69591	0.71780	0.00000	0.00426	-0.00958	0.40582	0.12210	9.92337
 1620117204	  195474979	0.01734	-0.00655	0.69480	0.71896	0.00000	0.00745	-0.00639	0.37769	0.13408	9.91678
 1620117204	  228474979	0.01739	-0.00908	0.69473	0.71900	0.00000	0.00639	-0.00639	0.37828	0.12450	9.92935
 1620117204	  341474979	0.01910	-0.01122	0.69443	0.71921	0.00000	0.00426	-0.00745	0.39564	0.13168	9.96467
 1620117204	  605474979	0.01801	-0.00965	0.69395	0.71973	0.00000	-0.00426	-0.00426	0.38966	0.13168	9.92696
 1620117204	  647474979	0.01803	-0.01163	0.69389	0.71975	0.00000	-0.00745	-0.00426	0.38666	0.11732	9.90721
 1620117204	  744474979	0.01804	-0.01023	0.69383	0.71984	0.00000	-0.00745	0.00000	0.41180	0.12450	9.92397
 1620117204	  918474979	0.02390	-0.01683	0.69372	0.71964	0.00000	-0.00745	0.00000	0.37828	0.12929	9.94851
 1620117205	  190474979	0.01690	-0.00870	0.69383	0.71988	0.00000	0.00000	0.00000	0.38128	0.12151	9.93294
 1620117205	  267474979	0.01953	-0.00934	0.69378	0.71985	0.00000	0.00000	0.00000	0.40223	0.11911	9.94611
 1620117205	  299474979	0.01849	-0.01015	0.69381	0.71984	0.00000	0.00000	0.00000	0.40043	0.12629	9.94851
 1620117205	  676474979	0.01594	-0.01148	0.69390	0.71980	0.00000	0.00639	0.00000	0.37769	0.11732	9.94851
 1620117205	  708474979	0.01778	-0.00935	0.69388	0.71981	0.00000	0.00639	0.00426	0.38247	0.13108	9.92995
 1620117205	  914474979	0.02049	-0.01144	0.69392	0.71966	0.00000	0.00532	0.00426	0.38966	0.13168	9.92995
 1620117206	  137474979	0.01773	-0.01043	0.69456	0.71914	0.00000	-0.00532	0.00639	0.39564	0.11492	9.94611
 1620117206	  231474979	0.02006	-0.00764	0.69467	0.71900	0.00000	-0.00639	0.00639	0.40701	0.12929	9.92875
 1620117206	  335876029	0.01980	-0.00728	0.69493	0.71876	0.00000	-0.00639	0.00745	0.39265	0.14904	9.94192
 1620117206	  927876029	0.01894	-0.00994	0.69632	0.71740	0.00000	0.00000	0.00851	0.40402	0.13048	9.93893
 1620117207	  330876029	-0.00050	0.01186	0.69675	0.71721	-0.08514	-0.94288	-0.18091	-0.53630	2.85209	0.42018
 1620117207	  714876029	0.00876	0.02747	0.70168	0.71191	-0.13090	-0.01703	0.16814	-2.52947	-2.77548	14.15093
 1620117207	  762876029	0.00235	0.03084	0.70379	0.70973	0.25115	0.32671	-0.04257	-0.93733	2.63302	8.89266
 1620117207	  910876029	-0.00210	0.03799	0.70364	0.70953	-0.15005	0.12664	-0.02448	-0.09876	1.12527	11.82077
 1620117208	  240876029	0.00119	0.02249	0.70280	0.71103	-0.00532	0.00000	0.01596	-0.12330	0.00000	9.73004
 1620117208	  322876029	0.00038	0.02567	0.70256	0.71116	0.01064	-0.00532	0.00851	-0.55725	0.45131	10.18493
 1620117208	  799029043	0.00025	0.02177	0.70253	0.71131	-0.00426	0.00000	0.00851	-0.30706	0.21308	9.78869
 1620117209	    8029043	-0.00228	0.02078	0.70256	0.71132	0.00000	0.00000	0.00532	-0.36152	0.17119	9.89643
 1620117209	  281029043	-0.00211	0.02143	0.70293	0.71093	0.00000	0.00000	0.00000	-0.33519	0.26396	9.88386
 1620117209	  334029043	-0.00064	0.02294	0.70287	0.71094	0.00000	0.00000	0.00000	-0.32382	0.32441	9.93594
 1620117209	  638029043	-0.00205	0.02184	0.70285	0.71099	0.00000	0.00000	-0.00532	-0.33160	0.28611	9.94791
 1620117209	  742029043	-0.00027	0.02293	0.70285	0.71096	0.00000	0.00000	0.00000	-0.32741	0.32262	9.94851
 1620117209	  942029043	-0.00280	0.02057	0.70284	0.71104	0.00000	0.00000	0.00000	-0.33279	0.27234	9.93115
 1620117210	  236029043	-0.00055	0.02373	0.70281	0.71098	0.00000	0.00000	0.00000	-0.33519	0.33220	9.95689
 1620117210	  277029043	-0.00134	0.02294	0.70281	0.71100	0.00000	0.00000	0.00000	-0.34477	0.30287	9.95030
 1620117210	  335029043	0.00044	0.02409	0.70282	0.71096	0.00000	0.00000	0.00000	-0.33878	0.29987	9.93773
 1620117210	  748029043	-0.00143	0.02311	0.70280	0.71101	0.00000	0.00000	0.00000	-0.34417	0.29688	9.91618
 1620117210	  833029043	-0.00050	0.02265	0.70282	0.71100	0.00000	0.00000	0.00000	-0.33459	0.30406	9.93235
 1620117211	  120029043	0.00004	0.02103	0.70285	0.71102	0.00000	0.00000	0.00000	-0.32382	0.29449	9.93893
 1620117211	  140029043	-0.00027	0.02234	0.70282	0.71101	0.00000	0.00000	0.00000	-0.32681	0.30765	9.92277
 1620117211	  221029043	-0.00055	0.02251	0.70282	0.71101	0.00000	0.00000	0.00000	-0.32801	0.30706	9.93294
 1620117211	  347303079	-0.00008	0.02298	0.70282	0.71099	0.00000	0.00000	0.00000	-0.33459	0.31005	9.95389
 1620117211	  696303079	-0.00106	0.02605	0.70275	0.71095	0.00000	0.00000	0.00000	-0.33220	0.30885	9.91199
 1620117211	  729303079	-0.00156	0.02284	0.70279	0.71102	0.00000	0.00000	0.00000	-0.34955	0.28850	9.92277
 1620117211	  826303079	-0.00125	0.02244	0.70280	0.71102	0.00000	0.00000	0.00000	-0.33459	0.29509	9.92935
 1620117212	  209303079	-0.00264	0.02235	0.70278	0.71105	0.00000	0.00000	0.00000	-0.35015	0.30167	9.93055
 1620117212	  229303079	-0.00126	0.02226	0.70280	0.71103	0.00000	0.00000	0.00000	-0.32801	0.29808	9.91140
 1620117212	  318303079	-0.00163	0.02274	0.70279	0.71102	0.00000	0.00000	0.00000	-0.35135	0.32741	9.89763
 1620117212	  670303079	-0.00055	0.02352	0.70280	0.71099	0.00000	0.00000	0.00000	-0.33519	0.29030	9.89344
 1620117212	  730303079	-0.00148	0.02217	0.70281	0.71103	0.00000	0.00000	0.00000	-0.32501	0.32561	9.92696
 1620117212	  841303079	-0.00052	0.02344	0.70281	0.71099	0.00000	0.00000	0.00000	-0.33639	0.32741	9.91319
 1620117213	  253303079	-0.00214	0.02356	0.70278	0.71101	0.00000	0.00000	0.00000	-0.33399	0.30526	9.92816
 1620117213	  327303079	0.00137	0.02116	0.70287	0.71099	0.00000	0.00000	0.00000	-0.32322	0.31184	9.92636
 1620117213	  686303079	-0.00069	0.02258	0.70281	0.71101	0.00000	0.00000	0.00000	-0.32860	0.30347	9.91798
 1620117213	  729303079	0.00082	0.01985	0.70288	0.71103	0.00000	0.00000	0.00000	-0.31723	0.30406	9.91978
 1620117213	  840423067	-0.00021	0.02292	0.70281	0.71100	0.00000	0.00000	0.00000	-0.33519	0.30347	9.92576
 1620117214	  150423067	-0.00292	0.02271	0.70277	0.71104	0.00000	0.00000	0.00000	-0.33639	0.28551	9.95868
 1620117214	  223423067	-0.00045	0.02436	0.70279	0.71098	0.00000	0.00000	0.00000	-0.35075	0.33399	9.93294
 1620117214	  356423067	0.00013	0.02441	0.70279	0.71097	0.00000	0.00000	0.00000	-0.33758	0.31184	9.92516
 1620117214	  606423067	-0.00098	0.02259	0.70280	0.71102	0.00000	0.00000	0.00000	-0.33938	0.30825	9.95150
 1620117214	  626423067	-0.00039	0.02243	0.70281	0.71101	0.00000	0.00000	0.00000	-0.31783	0.31244	9.95808
 1620117214	  747423067	-0.00072	0.02263	0.70280	0.71102	0.00000	0.00000	0.00000	-0.34716	0.31244	9.91439
 1620117214	  828423067	-0.00178	0.02272	0.70279	0.71103	0.00000	0.00000	0.00000	-0.34177	0.28730	9.91798
 1620117215	  217423067	-0.00123	0.02280	0.70279	0.71102	0.00000	0.00000	0.00000	-0.33519	0.30347	9.93594
 1620117215	  235423067	-0.00048	0.02271	0.70281	0.71101	0.00000	0.00000	0.00000	-0.32860	0.32142	9.91738
 1620117215	  344423067	-0.00192	0.02077	0.70281	0.71107	0.00000	0.00000	0.00000	-0.35135	0.30047	9.93175
 1620117215	  687423067	-0.00115	0.02261	0.70280	0.71103	0.00000	0.00000	0.00000	-0.34357	0.30287	9.94731
 1620117215	  735423067	-0.00095	0.02311	0.70279	0.71101	0.00000	0.00000	0.00000	-0.32681	0.30706	9.92097
 1620117215	  824423067	-0.00126	0.02289	0.70279	0.71102	0.00000	0.00000	0.00000	-0.34297	0.29987	9.92157
 1620117216	  142423067	0.00075	0.02183	0.70284	0.71101	0.00000	0.00000	0.00000	-0.34237	0.31184	9.93654
 1620117216	  229423067	-0.00003	0.02241	0.70282	0.71101	0.00000	0.00000	0.00000	-0.32621	0.29449	9.92935
 1620117216	  320454092	-0.00161	0.02208	0.70279	0.71104	0.00000	0.00000	0.00000	-0.33519	0.29090	9.92756
 1620117216	  617454092	-0.00244	0.02860	0.70267	0.71093	0.00000	0.00000	0.00000	-0.35434	0.30825	9.94491
 1620117216	  637454092	-0.00189	0.02653	0.70272	0.71097	0.00000	0.00000	0.00000	-0.33100	0.29928	9.92576
 1620117216	  717454092	-0.00130	0.02300	0.70278	0.71102	0.00000	0.00000	0.00000	-0.33519	0.30167	9.93115
 1620117216	  830454092	-0.00157	0.02383	0.70277	0.71101	0.00000	0.00000	0.00000	-0.34656	0.30765	9.94671
 1620117217	  166454092	-0.00188	0.02231	0.70278	0.71105	0.00000	0.00000	0.00000	-0.32382	0.29987	9.91678
 1620117217	  247454092	-0.00261	0.02154	0.70278	0.71107	0.00000	0.00000	0.00000	-0.32980	0.30706	9.90002
 1620117217	  300454092	-0.00077	0.02282	0.70280	0.71102	0.00000	0.00000	0.00000	-0.33160	0.30466	9.91319
 1620117217	  623454092	-0.00105	0.02380	0.70277	0.71101	0.00000	0.00000	0.00000	-0.35255	0.31663	9.93594
 1620117217	  704454092	-0.00113	0.02307	0.70278	0.71102	0.00000	0.00000	0.00000	-0.34357	0.30526	9.93115
 1620117217	  836454092	-0.00253	0.02365	0.70275	0.71103	0.00000	0.00000	0.00000	-0.33639	0.31484	9.92337
 1620117218	  105454092	0.00164	0.02342	0.70283	0.71097	0.00000	0.00000	0.00000	-0.34177	0.31663	9.90900
 1620117218	  143454092	-0.00010	0.02332	0.70280	0.71100	0.00000	0.00000	0.00000	-0.33399	0.32022	9.92636
 1620117218	  255454092	-0.00072	0.02566	0.70275	0.71097	0.00000	0.00000	0.00000	-0.35374	0.31484	9.93235
 1620117218	  327454092	-0.00273	0.02202	0.70278	0.71106	0.00000	0.00000	0.00000	-0.32501	0.31184	9.92875
 1620117218	  665454092	-0.00038	0.02189	0.70282	0.71103	0.00000	0.00000	0.00000	-0.31663	0.29808	9.94372
 1620117218	  738454092	-0.00009	0.02344	0.70280	0.71100	0.00000	0.00000	0.00000	-0.34237	0.30406	9.91738
 1620117218	  831978944	-0.00151	0.02331	0.70278	0.71102	0.00000	0.00000	0.00000	-0.34536	0.30646	9.92935
 1620117219	  196978944	-0.00034	0.02331	0.70279	0.71100	0.00000	0.00000	0.00000	-0.33818	0.31304	9.90960
 1620117219	  234978944	-0.00179	0.02183	0.70279	0.71105	0.00000	0.00000	0.00000	-0.32920	0.31184	9.92157
 1620117219	  325978944	-0.00079	0.02268	0.70280	0.71102	0.00000	0.00000	0.00000	-0.33818	0.30347	9.92816
 1620117219	  615978944	0.00436	0.02205	0.70288	0.71094	0.00000	0.00000	0.00000	-0.33639	0.30107	9.90661
 1620117219	  640978944	0.00236	0.02242	0.70285	0.71098	0.00000	0.00000	0.00000	-0.33639	0.30287	9.89284
 1620117219	  734978944	-0.00027	0.02244	0.70281	0.71102	0.00000	0.00000	0.00000	-0.32801	0.31184	9.91678
 1620117219	  846978944	-0.00277	0.02221	0.70277	0.71106	0.00000	0.00000	0.00000	-0.33818	0.32022	9.93893
 1620117220	  147978944	-0.00116	0.02352	0.70278	0.71102	0.00000	0.00000	0.00000	-0.34417	0.32860	9.91738
 1620117220	  233978944	-0.00102	0.02332	0.70278	0.71102	0.00000	0.00000	0.00000	-0.34357	0.30885	9.88506
 1620117220	  602978944	0.00014	0.02383	0.70279	0.71099	0.00000	0.00000	0.00000	-0.32082	0.30945	9.91678
 1620117220	  622978944	-0.00038	0.02264	0.70280	0.71102	0.00000	0.00000	0.00000	-0.32801	0.28611	9.93953
 1620117220	  630978944	-0.00053	0.02304	0.70279	0.71101	0.00000	0.00000	0.00000	-0.33459	0.31783	9.93235
 1620117220	  740978944	0.00058	0.02519	0.70278	0.71096	0.00000	0.00000	0.00000	-0.33698	0.30885	9.91738
 1620117220	  827978944	0.00037	0.02110	0.70284	0.71103	0.00000	0.00000	0.00000	-0.31424	0.31723	9.90721
 1620117220	  918978944	-0.00070	0.02319	0.70279	0.71102	0.00000	0.00000	0.00000	-0.33758	0.31663	9.91379
 1620117221	   59978944	0.00424	0.01321	0.70298	0.71107	0.00000	0.00000	0.00000	-0.31723	0.32741	9.93175
 1620117221	  125978944	0.00108	0.01896	0.70287	0.71105	0.00000	0.00000	0.00000	-0.35195	0.29928	9.93115
 1620117221	  227978944	-0.00034	0.02728	0.70272	0.71094	0.00000	0.00000	0.00000	-0.34417	0.30167	9.94312
 1620117221	  327372905	-0.00026	0.02195	0.70281	0.71103	0.00000	0.00000	0.00000	-0.31005	0.31424	9.95210
 1620117221	  449372905	-0.00265	0.02143	0.70278	0.71108	0.00000	0.00000	0.00000	-0.32681	0.30227	9.94432
 1620117221	  522372905	-0.00312	0.02286	0.70275	0.71106	0.00000	0.00000	0.00000	-0.33639	0.30406	9.94731
 1620117221	  626372905	-0.00051	0.02315	0.70279	0.71102	0.00000	0.00000	0.00000	-0.33758	0.31963	9.95090
 1620117221	  740372905	0.00224	0.02450	0.70281	0.71095	0.00000	0.00000	0.00000	-0.32322	0.34297	9.97125
 1620117221	  821372905	-0.00022	0.02166	0.70281	0.71104	0.00000	0.00000	0.00000	-0.32681	0.31663	9.94372
 1620117221	  921372905	-0.00116	0.02317	0.70277	0.71103	0.00000	0.00000	0.00000	-0.35853	0.30466	9.93534
 1620117222	   61372905	0.00050	0.02033	0.70284	0.71105	0.00000	0.00000	0.00000	-0.33698	0.30167	9.94132
 1620117222	  125372905	-0.00214	0.02401	0.70275	0.71102	0.00000	0.00000	0.00000	-0.35015	0.28970	9.91738
 1620117222	  234372905	-0.00182	0.02070	0.70280	0.71108	0.00000	0.00000	0.00000	-0.34297	0.29987	9.91140
 1620117222	  332372905	0.00107	0.02333	0.70281	0.71099	0.00000	0.00000	0.00000	-0.34237	0.29389	9.91618
 1620117222	  431372905	0.00021	0.02264	0.70281	0.71101	0.00000	0.00000	0.00000	-0.32801	0.29269	9.94192
 1620117222	  512372905	-0.00106	0.02271	0.70279	0.71103	0.00000	0.00000	0.00000	-0.33399	0.29329	9.93414
 1620117222	  626372905	0.00110	0.02395	0.70280	0.71098	0.00000	0.00000	0.00000	-0.33040	0.29269	9.96048
 1620117222	  732372905	0.00524	0.02438	0.70285	0.71089	0.00000	0.00000	0.00000	-0.32561	0.32322	9.89643
 1620117222	  827372905	-0.00128	0.02259	0.70278	0.71104	0.00000	0.00000	0.00000	-0.33399	0.29449	9.94911
 1620117222	  923372905	-0.00123	0.02236	0.70279	0.71104	0.00000	0.00000	0.00000	-0.33279	0.29269	9.94671
 1620117223	   72372905	-0.00029	0.03122	0.70265	0.71085	0.00000	0.00000	0.00000	-0.32801	0.30646	9.92157
 1620117223	  143372905	-0.00056	0.02467	0.70277	0.71099	0.00000	0.00000	0.00000	-0.33160	0.30765	9.96527
 1620117223	  220372905	0.00127	0.02397	0.70281	0.71097	0.00000	0.00000	0.00000	-0.33639	0.30107	9.92875
 1620117223	  364372905	-0.00229	0.01871	0.70282	0.71111	0.00000	0.00000	0.00000	-0.32142	0.29269	9.93833
